<?xml version="1.0" encoding="UTF-8"?>
<?xml-stylesheet type="text/xsl" href="../define2-1-0.xsl"?>
<ODM xmlns="http://www.cdisc.org/ns/odm/v1.3" xmlns:def="http://www.cdisc.org/ns/def/v2.1" xmlns:xlink="http://www.w3.org/1999/xlink" ODMVersion="1.3.2" FileType="Snapshot" FileOID="define.sdtm" CreationDateTime="2026-10-03T22:01:17" Originator="P3 portfolio" SourceSystem="make_define.py" SourceSystemVersion="1.0">
  <Study OID="VAXF101">
    <GlobalVariables>
      <StudyName>VAXF101</StudyName>
      <StudyDescription>Synthetic randomized, double-blind, placebo-controlled study of an influenza vaccine, SDTMIG 3.4</StudyDescription>
      <ProtocolName>VAXF101</ProtocolName>
    </GlobalVariables>
    <MetaDataVersion OID="MDV.SDTM" Name="VAXF101 SDTM" Description="VAXF101 SDTM metadata" def:DefineVersion="2.1.0">
      <def:Standards>
        <def:Standard OID="STD.SDTMIG" Name="SDTMIG" Type="IG" Version="3.4" Status="Final" />
        <def:Standard OID="STD.CT.SDTM" Name="CDISC/NCI" Type="CT" PublishingSet="SDTM" Version="2026-09-25" Status="Final" />
        <def:Standard OID="STD.CT.SDTM.2025" Name="CDISC/NCI" Type="CT" PublishingSet="SDTM" Version="2025-09-26" Status="Final" />
      </def:Standards>
      <def:ValueListDef OID="VL.VS.VSORRES">
        <ItemRef ItemOID="IT.VS.VSORRES.VSTESTCD.SYSBP.DIABP.PULSE.TEMP" OrderNumber="1" Mandatory="No">
          <def:WhereClauseRef WhereClauseOID="WC.VS.VSORRES.VSTESTCD.IN.SYSBP.DIABP.PULSE.TEMP" />
        </ItemRef>
      </def:ValueListDef>
      <def:ValueListDef OID="VL.VS.VSORRESU">
        <ItemRef ItemOID="IT.VS.VSORRESU.VSTESTCD.TEMP" OrderNumber="1" Mandatory="No">
          <def:WhereClauseRef WhereClauseOID="WC.VS.VSORRESU.VSTESTCD.EQ.TEMP" />
        </ItemRef>
        <ItemRef ItemOID="IT.VS.VSORRESU.VSTESTCD.SYSBP" OrderNumber="2" Mandatory="No">
          <def:WhereClauseRef WhereClauseOID="WC.VS.VSORRESU.VSTESTCD.EQ.SYSBP" />
        </ItemRef>
        <ItemRef ItemOID="IT.VS.VSORRESU.VSTESTCD.PULSE" OrderNumber="3" Mandatory="No">
          <def:WhereClauseRef WhereClauseOID="WC.VS.VSORRESU.VSTESTCD.EQ.PULSE" />
        </ItemRef>
      </def:ValueListDef>
      <def:ValueListDef OID="VL.VS.VSSTRESN">
        <ItemRef ItemOID="IT.VS.VSSTRESN.VSTESTCD.TEMP" OrderNumber="1" Mandatory="No" MethodOID="MT.TEMPC">
          <def:WhereClauseRef WhereClauseOID="WC.VS.VSSTRESN.VSTESTCD.EQ.TEMP" />
        </ItemRef>
      </def:ValueListDef>
      <def:ValueListDef OID="VL.FA.FAORRES">
        <ItemRef ItemOID="IT.FA.FAORRES.FATESTCD.OCCUR" OrderNumber="1" Mandatory="No" MethodOID="MT.FAORRES">
          <def:WhereClauseRef WhereClauseOID="WC.FA.FAORRES.FATESTCD.EQ.OCCUR" />
        </ItemRef>
        <ItemRef ItemOID="IT.FA.FAORRES.FATESTCD.SEV" OrderNumber="2" Mandatory="No" MethodOID="MT.FAORRES">
          <def:WhereClauseRef WhereClauseOID="WC.FA.FAORRES.FATESTCD.EQ.SEV" />
        </ItemRef>
        <ItemRef ItemOID="IT.FA.FAORRES.FATESTCD.DIAMETER" OrderNumber="3" Mandatory="No" MethodOID="MT.FAORRES">
          <def:WhereClauseRef WhereClauseOID="WC.FA.FAORRES.FATESTCD.EQ.DIAMETER" />
        </ItemRef>
      </def:ValueListDef>
      <def:ValueListDef OID="VL.IS.ISORRES">
        <ItemRef ItemOID="IT.IS.ISORRES.ISSTAT.NOT_DONE" OrderNumber="1" Mandatory="No" MethodOID="MT.ISRES">
          <def:WhereClauseRef WhereClauseOID="WC.IS.ISORRES.ISSTAT.NE.NOT_DONE" />
        </ItemRef>
      </def:ValueListDef>
      <def:ValueListDef OID="VL.DS.DSDECOD">
        <ItemRef ItemOID="IT.DS.DSDECOD.DSCAT.DISPOSITION_EVENT" OrderNumber="1" Mandatory="No" MethodOID="MT.DSDECOD">
          <def:WhereClauseRef WhereClauseOID="WC.DS.DSDECOD.DSCAT.EQ.DISPOSITION_EVENT" />
        </ItemRef>
        <ItemRef ItemOID="IT.DS.DSDECOD.DSCAT.PROTOCOL_MILESTONE" OrderNumber="2" Mandatory="No" MethodOID="MT.DSDECOD">
          <def:WhereClauseRef WhereClauseOID="WC.DS.DSDECOD.DSCAT.EQ.PROTOCOL_MILESTONE" />
        </ItemRef>
      </def:ValueListDef>
      <def:WhereClauseDef OID="WC.VS.VSORRES.VSTESTCD.IN.SYSBP.DIABP.PULSE.TEMP">
        <RangeCheck SoftHard="Soft" def:ItemOID="IT.VS.VSTESTCD" Comparator="IN">
          <CheckValue>SYSBP</CheckValue>
          <CheckValue>DIABP</CheckValue>
          <CheckValue>PULSE</CheckValue>
          <CheckValue>TEMP</CheckValue>
        </RangeCheck>
      </def:WhereClauseDef>
      <def:WhereClauseDef OID="WC.VS.VSORRESU.VSTESTCD.EQ.TEMP">
        <RangeCheck SoftHard="Soft" def:ItemOID="IT.VS.VSTESTCD" Comparator="EQ">
          <CheckValue>TEMP</CheckValue>
        </RangeCheck>
      </def:WhereClauseDef>
      <def:WhereClauseDef OID="WC.VS.VSORRESU.VSTESTCD.EQ.SYSBP">
        <RangeCheck SoftHard="Soft" def:ItemOID="IT.VS.VSTESTCD" Comparator="EQ">
          <CheckValue>SYSBP</CheckValue>
        </RangeCheck>
      </def:WhereClauseDef>
      <def:WhereClauseDef OID="WC.VS.VSORRESU.VSTESTCD.EQ.PULSE">
        <RangeCheck SoftHard="Soft" def:ItemOID="IT.VS.VSTESTCD" Comparator="EQ">
          <CheckValue>PULSE</CheckValue>
        </RangeCheck>
      </def:WhereClauseDef>
      <def:WhereClauseDef OID="WC.VS.VSSTRESN.VSTESTCD.EQ.TEMP">
        <RangeCheck SoftHard="Soft" def:ItemOID="IT.VS.VSTESTCD" Comparator="EQ">
          <CheckValue>TEMP</CheckValue>
        </RangeCheck>
      </def:WhereClauseDef>
      <def:WhereClauseDef OID="WC.FA.FAORRES.FATESTCD.EQ.OCCUR">
        <RangeCheck SoftHard="Soft" def:ItemOID="IT.FA.FATESTCD" Comparator="EQ">
          <CheckValue>OCCUR</CheckValue>
        </RangeCheck>
      </def:WhereClauseDef>
      <def:WhereClauseDef OID="WC.FA.FAORRES.FATESTCD.EQ.SEV">
        <RangeCheck SoftHard="Soft" def:ItemOID="IT.FA.FATESTCD" Comparator="EQ">
          <CheckValue>SEV</CheckValue>
        </RangeCheck>
      </def:WhereClauseDef>
      <def:WhereClauseDef OID="WC.FA.FAORRES.FATESTCD.EQ.DIAMETER">
        <RangeCheck SoftHard="Soft" def:ItemOID="IT.FA.FATESTCD" Comparator="EQ">
          <CheckValue>DIAMETER</CheckValue>
        </RangeCheck>
      </def:WhereClauseDef>
      <def:WhereClauseDef OID="WC.IS.ISORRES.ISSTAT.NE.NOT_DONE">
        <RangeCheck SoftHard="Soft" def:ItemOID="IT.IS.ISSTAT" Comparator="NE">
          <CheckValue>NOT DONE</CheckValue>
        </RangeCheck>
      </def:WhereClauseDef>
      <def:WhereClauseDef OID="WC.DS.DSDECOD.DSCAT.EQ.DISPOSITION_EVENT">
        <RangeCheck SoftHard="Soft" def:ItemOID="IT.DS.DSCAT" Comparator="EQ">
          <CheckValue>DISPOSITION EVENT</CheckValue>
        </RangeCheck>
      </def:WhereClauseDef>
      <def:WhereClauseDef OID="WC.DS.DSDECOD.DSCAT.EQ.PROTOCOL_MILESTONE">
        <RangeCheck SoftHard="Soft" def:ItemOID="IT.DS.DSCAT" Comparator="EQ">
          <CheckValue>PROTOCOL MILESTONE</CheckValue>
        </RangeCheck>
      </def:WhereClauseDef>
      <ItemGroupDef OID="IG.DM" Name="DM" Repeating="No" IsReferenceData="No" SASDatasetName="DM" Purpose="Tabulation" def:Structure="One record per subject" def:ArchiveLocationID="LF.DM" def:StandardOID="STD.SDTMIG">
        <Description>
          <TranslatedText xml:lang="en">Demographics</TranslatedText>
        </Description>
        <ItemRef ItemOID="IT.DM.STUDYID" OrderNumber="1" Mandatory="Yes" KeySequence="1" Role="Identifier" />
        <ItemRef ItemOID="IT.DM.DOMAIN" OrderNumber="2" Mandatory="Yes" Role="Identifier" />
        <ItemRef ItemOID="IT.DM.USUBJID" OrderNumber="3" Mandatory="Yes" KeySequence="2" MethodOID="MT.USUBJID" Role="Identifier" />
        <ItemRef ItemOID="IT.DM.SUBJID" OrderNumber="4" Mandatory="Yes" Role="Topic" />
        <ItemRef ItemOID="IT.DM.RFSTDTC" OrderNumber="5" Mandatory="No" MethodOID="MT.RFDOSE" Role="Record Qualifier" />
        <ItemRef ItemOID="IT.DM.RFENDTC" OrderNumber="6" Mandatory="No" MethodOID="MT.RFEND" Role="Record Qualifier" />
        <ItemRef ItemOID="IT.DM.RFXSTDTC" OrderNumber="7" Mandatory="No" MethodOID="MT.RFDOSE" Role="Record Qualifier" />
        <ItemRef ItemOID="IT.DM.RFXENDTC" OrderNumber="8" Mandatory="No" MethodOID="MT.RFDOSE" Role="Record Qualifier" />
        <ItemRef ItemOID="IT.DM.RFICDTC" OrderNumber="9" Mandatory="No" MethodOID="MT.ISODT" Role="Record Qualifier" />
        <ItemRef ItemOID="IT.DM.RFPENDTC" OrderNumber="10" Mandatory="No" MethodOID="MT.RFEND" Role="Record Qualifier" />
        <ItemRef ItemOID="IT.DM.SITEID" OrderNumber="11" Mandatory="Yes" Role="Record Qualifier" />
        <ItemRef ItemOID="IT.DM.BRTHDTC" OrderNumber="12" Mandatory="No" MethodOID="MT.ISODT" Role="Record Qualifier" />
        <ItemRef ItemOID="IT.DM.AGE" OrderNumber="13" Mandatory="No" MethodOID="MT.AGE" Role="Record Qualifier" />
        <ItemRef ItemOID="IT.DM.AGEU" OrderNumber="14" Mandatory="No" Role="Variable Qualifier" />
        <ItemRef ItemOID="IT.DM.SEX" OrderNumber="15" Mandatory="Yes" MethodOID="MT.UPPER" Role="Record Qualifier" />
        <ItemRef ItemOID="IT.DM.RACE" OrderNumber="16" Mandatory="No" MethodOID="MT.UPPER" Role="Record Qualifier" />
        <ItemRef ItemOID="IT.DM.ETHNIC" OrderNumber="17" Mandatory="No" MethodOID="MT.UPPER" Role="Record Qualifier" />
        <ItemRef ItemOID="IT.DM.ARMCD" OrderNumber="18" Mandatory="No" MethodOID="MT.ARM" Role="Record Qualifier" />
        <ItemRef ItemOID="IT.DM.ARM" OrderNumber="19" Mandatory="No" MethodOID="MT.ARM" Role="Synonym Qualifier" />
        <ItemRef ItemOID="IT.DM.ACTARMCD" OrderNumber="20" Mandatory="No" MethodOID="MT.ARM" Role="Record Qualifier" />
        <ItemRef ItemOID="IT.DM.ACTARM" OrderNumber="21" Mandatory="No" MethodOID="MT.ARM" Role="Synonym Qualifier" />
        <ItemRef ItemOID="IT.DM.ARMNRS" OrderNumber="22" Mandatory="No" MethodOID="MT.ARM" Role="Record Qualifier" />
        <ItemRef ItemOID="IT.DM.COUNTRY" OrderNumber="23" Mandatory="Yes" Role="Record Qualifier" />
        <ItemRef ItemOID="IT.DM.DMDTC" OrderNumber="24" Mandatory="No" MethodOID="MT.ISODT" Role="Timing" />
        <ItemRef ItemOID="IT.DM.DMDY" OrderNumber="25" Mandatory="No" MethodOID="MT.DY" Role="Timing" />
        <def:Class Name="SPECIAL PURPOSE" />
      </ItemGroupDef>
      <ItemGroupDef OID="IG.DS" Name="DS" Repeating="Yes" IsReferenceData="No" SASDatasetName="DS" Purpose="Tabulation" def:Structure="One record per disposition status or protocol milestone per subject" def:ArchiveLocationID="LF.DS" def:StandardOID="STD.SDTMIG">
        <Description>
          <TranslatedText xml:lang="en">Disposition</TranslatedText>
        </Description>
        <ItemRef ItemOID="IT.DS.STUDYID" OrderNumber="1" Mandatory="Yes" KeySequence="1" Role="Identifier" />
        <ItemRef ItemOID="IT.DS.DOMAIN" OrderNumber="2" Mandatory="Yes" Role="Identifier" />
        <ItemRef ItemOID="IT.DS.USUBJID" OrderNumber="3" Mandatory="Yes" KeySequence="2" MethodOID="MT.USUBJID" Role="Identifier" />
        <ItemRef ItemOID="IT.DS.DSSEQ" OrderNumber="4" Mandatory="Yes" MethodOID="MT.SEQDS" Role="Identifier" />
        <ItemRef ItemOID="IT.DS.DSREFID" OrderNumber="5" Mandatory="No" Role="Identifier" />
        <ItemRef ItemOID="IT.DS.DSTERM" OrderNumber="6" Mandatory="Yes" Role="Topic" />
        <ItemRef ItemOID="IT.DS.DSDECOD" OrderNumber="7" Mandatory="Yes" KeySequence="3" MethodOID="MT.DSDECOD" Role="Synonym Qualifier" />
        <ItemRef ItemOID="IT.DS.DSCAT" OrderNumber="8" Mandatory="No" Role="Grouping Qualifier" />
        <ItemRef ItemOID="IT.DS.EPOCH" OrderNumber="9" Mandatory="No" MethodOID="MT.EPOCH" Role="Timing" />
        <ItemRef ItemOID="IT.DS.DSSTDTC" OrderNumber="10" Mandatory="No" KeySequence="4" MethodOID="MT.ISODT" Role="Timing" />
        <ItemRef ItemOID="IT.DS.DSSTDY" OrderNumber="11" Mandatory="No" MethodOID="MT.DY" Role="Timing" />
        <def:Class Name="EVENTS" />
      </ItemGroupDef>
      <ItemGroupDef OID="IG.EX" Name="EX" Repeating="Yes" IsReferenceData="No" SASDatasetName="EX" Purpose="Tabulation" def:Structure="One record per constant dosing interval per subject" def:ArchiveLocationID="LF.EX" def:StandardOID="STD.SDTMIG">
        <Description>
          <TranslatedText xml:lang="en">Exposure</TranslatedText>
        </Description>
        <ItemRef ItemOID="IT.EX.STUDYID" OrderNumber="1" Mandatory="Yes" KeySequence="1" Role="Identifier" />
        <ItemRef ItemOID="IT.EX.DOMAIN" OrderNumber="2" Mandatory="Yes" Role="Identifier" />
        <ItemRef ItemOID="IT.EX.USUBJID" OrderNumber="3" Mandatory="Yes" KeySequence="2" MethodOID="MT.USUBJID" Role="Identifier" />
        <ItemRef ItemOID="IT.EX.EXSEQ" OrderNumber="4" Mandatory="Yes" MethodOID="MT.SEQ" Role="Identifier" />
        <ItemRef ItemOID="IT.EX.EXTRT" OrderNumber="5" Mandatory="Yes" KeySequence="3" MethodOID="MT.EXTRT" Role="Topic" />
        <ItemRef ItemOID="IT.EX.EXCAT" OrderNumber="6" Mandatory="No" Role="Grouping Qualifier" />
        <ItemRef ItemOID="IT.EX.EXDOSE" OrderNumber="7" Mandatory="No" Role="Record Qualifier" />
        <ItemRef ItemOID="IT.EX.EXDOSU" OrderNumber="8" Mandatory="No" Role="Variable Qualifier" />
        <ItemRef ItemOID="IT.EX.EXDOSFRM" OrderNumber="9" Mandatory="No" Role="Variable Qualifier" />
        <ItemRef ItemOID="IT.EX.EXDOSFRQ" OrderNumber="10" Mandatory="No" Role="Record Qualifier" />
        <ItemRef ItemOID="IT.EX.EXROUTE" OrderNumber="11" Mandatory="No" MethodOID="MT.UPPER" Role="Variable Qualifier" />
        <ItemRef ItemOID="IT.EX.EXLOT" OrderNumber="12" Mandatory="No" Role="Record Qualifier" />
        <ItemRef ItemOID="IT.EX.EXLOC" OrderNumber="13" Mandatory="No" MethodOID="MT.EXLOC" Role="Record Qualifier" />
        <ItemRef ItemOID="IT.EX.EXLAT" OrderNumber="14" Mandatory="No" MethodOID="MT.UPPER" Role="Variable Qualifier" />
        <ItemRef ItemOID="IT.EX.EPOCH" OrderNumber="15" Mandatory="No" MethodOID="MT.EPOCH" Role="Timing" />
        <ItemRef ItemOID="IT.EX.EXSTDTC" OrderNumber="16" Mandatory="No" KeySequence="4" MethodOID="MT.ISODT" Role="Timing" />
        <ItemRef ItemOID="IT.EX.EXENDTC" OrderNumber="17" Mandatory="No" MethodOID="MT.ISODT" Role="Timing" />
        <ItemRef ItemOID="IT.EX.EXSTDY" OrderNumber="18" Mandatory="No" MethodOID="MT.DY" Role="Timing" />
        <ItemRef ItemOID="IT.EX.EXENDY" OrderNumber="19" Mandatory="No" MethodOID="MT.DY" Role="Timing" />
        <def:Class Name="INTERVENTIONS" />
      </ItemGroupDef>
      <ItemGroupDef OID="IG.SV" Name="SV" Repeating="Yes" IsReferenceData="No" SASDatasetName="SV" Purpose="Tabulation" def:Structure="One record per actual visit per subject" def:ArchiveLocationID="LF.SV" def:StandardOID="STD.SDTMIG">
        <Description>
          <TranslatedText xml:lang="en">Subject Visits</TranslatedText>
        </Description>
        <ItemRef ItemOID="IT.SV.STUDYID" OrderNumber="1" Mandatory="Yes" KeySequence="1" Role="Identifier" />
        <ItemRef ItemOID="IT.SV.DOMAIN" OrderNumber="2" Mandatory="Yes" Role="Identifier" />
        <ItemRef ItemOID="IT.SV.USUBJID" OrderNumber="3" Mandatory="Yes" KeySequence="2" MethodOID="MT.USUBJID" Role="Identifier" />
        <ItemRef ItemOID="IT.SV.VISITNUM" OrderNumber="4" Mandatory="Yes" KeySequence="3" MethodOID="MT.VISIT" Role="Topic" />
        <ItemRef ItemOID="IT.SV.VISIT" OrderNumber="5" Mandatory="No" MethodOID="MT.VISIT" Role="Synonym Qualifier" />
        <ItemRef ItemOID="IT.SV.SVPRESP" OrderNumber="6" Mandatory="No" Role="Variable Qualifier" />
        <ItemRef ItemOID="IT.SV.SVOCCUR" OrderNumber="7" Mandatory="No" Role="Record Qualifier" />
        <ItemRef ItemOID="IT.SV.VISITDY" OrderNumber="8" Mandatory="No" MethodOID="MT.VISIT" Role="Timing" />
        <ItemRef ItemOID="IT.SV.SVSTDTC" OrderNumber="9" Mandatory="No" MethodOID="MT.ISODT" Role="Timing" />
        <ItemRef ItemOID="IT.SV.SVENDTC" OrderNumber="10" Mandatory="No" MethodOID="MT.ISODT" Role="Timing" />
        <ItemRef ItemOID="IT.SV.SVSTDY" OrderNumber="11" Mandatory="No" MethodOID="MT.DY" Role="Timing" />
        <ItemRef ItemOID="IT.SV.SVENDY" OrderNumber="12" Mandatory="No" MethodOID="MT.DY" Role="Timing" />
        <def:Class Name="SPECIAL PURPOSE" />
      </ItemGroupDef>
      <ItemGroupDef OID="IG.IE" Name="IE" Repeating="Yes" IsReferenceData="No" SASDatasetName="IE" Purpose="Tabulation" def:Structure="One record per inclusion/exclusion criterion not met per subject" def:ArchiveLocationID="LF.IE" def:StandardOID="STD.SDTMIG">
        <Description>
          <TranslatedText xml:lang="en">Inclusion/Exclusion Criterion Not Met</TranslatedText>
        </Description>
        <ItemRef ItemOID="IT.IE.STUDYID" OrderNumber="1" Mandatory="Yes" KeySequence="1" Role="Identifier" />
        <ItemRef ItemOID="IT.IE.DOMAIN" OrderNumber="2" Mandatory="Yes" Role="Identifier" />
        <ItemRef ItemOID="IT.IE.USUBJID" OrderNumber="3" Mandatory="Yes" KeySequence="2" MethodOID="MT.USUBJID" Role="Identifier" />
        <ItemRef ItemOID="IT.IE.IESEQ" OrderNumber="4" Mandatory="Yes" MethodOID="MT.SEQ" Role="Identifier" />
        <ItemRef ItemOID="IT.IE.IETESTCD" OrderNumber="5" Mandatory="Yes" KeySequence="3" MethodOID="MT.IECRIT" Role="Topic" />
        <ItemRef ItemOID="IT.IE.IETEST" OrderNumber="6" Mandatory="Yes" MethodOID="MT.IECRIT" Role="Synonym Qualifier" />
        <ItemRef ItemOID="IT.IE.IECAT" OrderNumber="7" Mandatory="Yes" MethodOID="MT.IECRIT" Role="Grouping Qualifier" />
        <ItemRef ItemOID="IT.IE.IEORRES" OrderNumber="8" Mandatory="Yes" MethodOID="MT.IECRIT" Role="Result Qualifier" />
        <ItemRef ItemOID="IT.IE.IESTRESC" OrderNumber="9" Mandatory="Yes" MethodOID="MT.IECRIT" Role="Result Qualifier" />
        <ItemRef ItemOID="IT.IE.VISITNUM" OrderNumber="10" Mandatory="No" Role="Timing" />
        <ItemRef ItemOID="IT.IE.VISIT" OrderNumber="11" Mandatory="No" Role="Timing" />
        <ItemRef ItemOID="IT.IE.EPOCH" OrderNumber="12" Mandatory="No" Role="Timing" />
        <ItemRef ItemOID="IT.IE.IEDTC" OrderNumber="13" Mandatory="No" MethodOID="MT.ISODT" Role="Timing" />
        <ItemRef ItemOID="IT.IE.IEDY" OrderNumber="14" Mandatory="No" MethodOID="MT.DY" Role="Timing" />
        <def:Class Name="FINDINGS" />
      </ItemGroupDef>
      <ItemGroupDef OID="IG.VS" Name="VS" Repeating="Yes" IsReferenceData="No" SASDatasetName="VS" Purpose="Tabulation" def:Structure="One record per vital sign measurement per time point per visit per subject" def:ArchiveLocationID="LF.VS" def:CommentOID="COM.TEMP" def:StandardOID="STD.SDTMIG">
        <Description>
          <TranslatedText xml:lang="en">Vital Signs</TranslatedText>
        </Description>
        <ItemRef ItemOID="IT.VS.STUDYID" OrderNumber="1" Mandatory="Yes" KeySequence="1" Role="Identifier" />
        <ItemRef ItemOID="IT.VS.DOMAIN" OrderNumber="2" Mandatory="Yes" Role="Identifier" />
        <ItemRef ItemOID="IT.VS.USUBJID" OrderNumber="3" Mandatory="Yes" KeySequence="2" MethodOID="MT.USUBJID" Role="Identifier" />
        <ItemRef ItemOID="IT.VS.VSSEQ" OrderNumber="4" Mandatory="Yes" MethodOID="MT.SEQ" Role="Identifier" />
        <ItemRef ItemOID="IT.VS.VSTESTCD" OrderNumber="5" Mandatory="Yes" KeySequence="3" MethodOID="MT.VSTEST" Role="Topic" />
        <ItemRef ItemOID="IT.VS.VSTEST" OrderNumber="6" Mandatory="Yes" MethodOID="MT.VSTEST" Role="Synonym Qualifier" />
        <ItemRef ItemOID="IT.VS.VSCAT" OrderNumber="7" Mandatory="No" MethodOID="MT.VSCAT" Role="Grouping Qualifier" />
        <ItemRef ItemOID="IT.VS.VSSCAT" OrderNumber="8" Mandatory="No" MethodOID="MT.VSCAT" Role="Grouping Qualifier" />
        <ItemRef ItemOID="IT.VS.VSORRES" OrderNumber="9" Mandatory="No" Role="Result Qualifier" />
        <ItemRef ItemOID="IT.VS.VSORRESU" OrderNumber="10" Mandatory="No" MethodOID="MT.VSUNIT" Role="Variable Qualifier" />
        <ItemRef ItemOID="IT.VS.VSSTRESC" OrderNumber="11" Mandatory="No" MethodOID="MT.TEMPC" Role="Result Qualifier" />
        <ItemRef ItemOID="IT.VS.VSSTRESN" OrderNumber="12" Mandatory="No" MethodOID="MT.TEMPC" Role="Result Qualifier" />
        <ItemRef ItemOID="IT.VS.VSSTRESU" OrderNumber="13" Mandatory="No" MethodOID="MT.TEMPC" Role="Variable Qualifier" />
        <ItemRef ItemOID="IT.VS.VSLOBXFL" OrderNumber="14" Mandatory="No" MethodOID="MT.LOBXFL" Role="Record Qualifier" />
        <ItemRef ItemOID="IT.VS.VISITNUM" OrderNumber="15" Mandatory="No" KeySequence="4" MethodOID="MT.VISIT" Role="Timing" />
        <ItemRef ItemOID="IT.VS.VISIT" OrderNumber="16" Mandatory="No" MethodOID="MT.VISIT" Role="Timing" />
        <ItemRef ItemOID="IT.VS.EPOCH" OrderNumber="17" Mandatory="No" MethodOID="MT.EPOCH" Role="Timing" />
        <ItemRef ItemOID="IT.VS.VSDTC" OrderNumber="18" Mandatory="No" KeySequence="5" MethodOID="MT.ISODT" Role="Timing" />
        <ItemRef ItemOID="IT.VS.VSDY" OrderNumber="19" Mandatory="No" MethodOID="MT.DY" Role="Timing" />
        <ItemRef ItemOID="IT.VS.VSTPT" OrderNumber="20" Mandatory="No" MethodOID="MT.DIARYTPT" Role="Timing" />
        <ItemRef ItemOID="IT.VS.VSTPTNUM" OrderNumber="21" Mandatory="No" KeySequence="6" MethodOID="MT.DIARYTPT" Role="Timing" />
        <ItemRef ItemOID="IT.VS.VSTPTREF" OrderNumber="22" Mandatory="No" Role="Timing" />
        <ItemRef ItemOID="IT.VS.VSRFTDTC" OrderNumber="23" Mandatory="No" MethodOID="MT.RFDOSE" Role="Timing" />
        <def:Class Name="FINDINGS" />
      </ItemGroupDef>
      <ItemGroupDef OID="IG.CE" Name="CE" Repeating="Yes" IsReferenceData="No" SASDatasetName="CE" Purpose="Tabulation" def:Structure="One record per solicited reaction per time point per subject" def:ArchiveLocationID="LF.CE" def:CommentOID="COM.FLAT" def:StandardOID="STD.SDTMIG">
        <Description>
          <TranslatedText xml:lang="en">Clinical Events</TranslatedText>
        </Description>
        <ItemRef ItemOID="IT.CE.STUDYID" OrderNumber="1" Mandatory="Yes" KeySequence="1" Role="Identifier" />
        <ItemRef ItemOID="IT.CE.DOMAIN" OrderNumber="2" Mandatory="Yes" Role="Identifier" />
        <ItemRef ItemOID="IT.CE.USUBJID" OrderNumber="3" Mandatory="Yes" KeySequence="2" MethodOID="MT.USUBJID" Role="Identifier" />
        <ItemRef ItemOID="IT.CE.CESEQ" OrderNumber="4" Mandatory="Yes" MethodOID="MT.SEQ" Role="Identifier" />
        <ItemRef ItemOID="IT.CE.CEGRPID" OrderNumber="5" Mandatory="No" MethodOID="MT.REACT" Role="Identifier" />
        <ItemRef ItemOID="IT.CE.CETERM" OrderNumber="6" Mandatory="Yes" MethodOID="MT.REACT" Role="Topic" />
        <ItemRef ItemOID="IT.CE.CEDECOD" OrderNumber="7" Mandatory="No" KeySequence="3" MethodOID="MT.REACT" Role="Synonym Qualifier" />
        <ItemRef ItemOID="IT.CE.CECAT" OrderNumber="8" Mandatory="No" Role="Grouping Qualifier" />
        <ItemRef ItemOID="IT.CE.CESCAT" OrderNumber="9" Mandatory="No" MethodOID="MT.REACT" Role="Grouping Qualifier" />
        <ItemRef ItemOID="IT.CE.CEPRESP" OrderNumber="10" Mandatory="No" Role="Variable Qualifier" />
        <ItemRef ItemOID="IT.CE.CEOCCUR" OrderNumber="11" Mandatory="No" MethodOID="MT.CEOCCUR" Role="Record Qualifier" />
        <ItemRef ItemOID="IT.CE.CESEV" OrderNumber="12" Mandatory="No" MethodOID="MT.CEOCCUR" Role="Record Qualifier" />
        <ItemRef ItemOID="IT.CE.CETOXGR" OrderNumber="13" Mandatory="No" MethodOID="MT.CEOCCUR" Role="Record Qualifier" />
        <ItemRef ItemOID="IT.CE.EPOCH" OrderNumber="14" Mandatory="No" MethodOID="MT.EPOCH" Role="Timing" />
        <ItemRef ItemOID="IT.CE.CESTDTC" OrderNumber="15" Mandatory="No" MethodOID="MT.CEOCCUR" Role="Timing" />
        <ItemRef ItemOID="IT.CE.CEENDTC" OrderNumber="16" Mandatory="No" MethodOID="MT.CEOCCUR" Role="Timing" />
        <ItemRef ItemOID="IT.CE.CESTDY" OrderNumber="17" Mandatory="No" MethodOID="MT.DY" Role="Timing" />
        <ItemRef ItemOID="IT.CE.CEENDY" OrderNumber="18" Mandatory="No" MethodOID="MT.DY" Role="Timing" />
        <ItemRef ItemOID="IT.CE.CETPT" OrderNumber="19" Mandatory="No" Role="Timing" />
        <ItemRef ItemOID="IT.CE.CETPTNUM" OrderNumber="20" Mandatory="No" KeySequence="4" Role="Timing" />
        <ItemRef ItemOID="IT.CE.CETPTREF" OrderNumber="21" Mandatory="No" Role="Timing" />
        <ItemRef ItemOID="IT.CE.CERFTDTC" OrderNumber="22" Mandatory="No" MethodOID="MT.RFDOSE" Role="Timing" />
        <ItemRef ItemOID="IT.CE.CEEVINTX" OrderNumber="23" Mandatory="No" Role="Timing" />
        <def:Class Name="EVENTS" />
      </ItemGroupDef>
      <ItemGroupDef OID="IG.FA" Name="FACE" Repeating="Yes" IsReferenceData="No" SASDatasetName="FACE" Purpose="Tabulation" def:Structure="One record per finding per object per time point per visit per subject" def:ArchiveLocationID="LF.FA" def:CommentOID="COM.FLAT" def:StandardOID="STD.SDTMIG">
        <Description>
          <TranslatedText xml:lang="en">Findings About Events or Interventions</TranslatedText>
        </Description>
        <ItemRef ItemOID="IT.FA.STUDYID" OrderNumber="1" Mandatory="Yes" KeySequence="1" Role="Identifier" />
        <ItemRef ItemOID="IT.FA.DOMAIN" OrderNumber="2" Mandatory="Yes" Role="Identifier" />
        <ItemRef ItemOID="IT.FA.USUBJID" OrderNumber="3" Mandatory="Yes" KeySequence="2" MethodOID="MT.USUBJID" Role="Identifier" />
        <ItemRef ItemOID="IT.FA.FASEQ" OrderNumber="4" Mandatory="Yes" MethodOID="MT.SEQ" Role="Identifier" />
        <ItemRef ItemOID="IT.FA.FAGRPID" OrderNumber="5" Mandatory="No" MethodOID="MT.REACT" Role="Identifier" />
        <ItemRef ItemOID="IT.FA.FATESTCD" OrderNumber="6" Mandatory="Yes" KeySequence="4" MethodOID="MT.FATEST" Role="Topic" />
        <ItemRef ItemOID="IT.FA.FATEST" OrderNumber="7" Mandatory="Yes" MethodOID="MT.FATEST" Role="Synonym Qualifier" />
        <ItemRef ItemOID="IT.FA.FAOBJ" OrderNumber="8" Mandatory="Yes" KeySequence="3" MethodOID="MT.REACT" Role="Record Qualifier" />
        <ItemRef ItemOID="IT.FA.FACAT" OrderNumber="9" Mandatory="No" Role="Grouping Qualifier" />
        <ItemRef ItemOID="IT.FA.FASCAT" OrderNumber="10" Mandatory="No" MethodOID="MT.REACT" Role="Grouping Qualifier" />
        <ItemRef ItemOID="IT.FA.FAORRES" OrderNumber="11" Mandatory="No" MethodOID="MT.FAORRES" Role="Result Qualifier" />
        <ItemRef ItemOID="IT.FA.FAORRESU" OrderNumber="12" Mandatory="No" MethodOID="MT.FAORRES" Role="Variable Qualifier" />
        <ItemRef ItemOID="IT.FA.FASTRESC" OrderNumber="13" Mandatory="No" MethodOID="MT.FAORRES" Role="Result Qualifier" />
        <ItemRef ItemOID="IT.FA.FASTRESN" OrderNumber="14" Mandatory="No" MethodOID="MT.FAORRES" Role="Result Qualifier" />
        <ItemRef ItemOID="IT.FA.FASTRESU" OrderNumber="15" Mandatory="No" MethodOID="MT.FAORRES" Role="Variable Qualifier" />
        <ItemRef ItemOID="IT.FA.FAEVAL" OrderNumber="16" Mandatory="No" Role="Record Qualifier" />
        <ItemRef ItemOID="IT.FA.EPOCH" OrderNumber="17" Mandatory="No" MethodOID="MT.EPOCH" Role="Timing" />
        <ItemRef ItemOID="IT.FA.FADTC" OrderNumber="18" Mandatory="No" MethodOID="MT.ISODT" Role="Timing" />
        <ItemRef ItemOID="IT.FA.FADY" OrderNumber="19" Mandatory="No" MethodOID="MT.DY" Role="Timing" />
        <ItemRef ItemOID="IT.FA.FATPT" OrderNumber="20" Mandatory="No" MethodOID="MT.DIARYTPT" Role="Timing" />
        <ItemRef ItemOID="IT.FA.FATPTNUM" OrderNumber="21" Mandatory="No" KeySequence="5" MethodOID="MT.DIARYTPT" Role="Timing" />
        <ItemRef ItemOID="IT.FA.FATPTREF" OrderNumber="22" Mandatory="No" Role="Timing" />
        <ItemRef ItemOID="IT.FA.FARFTDTC" OrderNumber="23" Mandatory="No" MethodOID="MT.RFDOSE" Role="Timing" />
        <def:Class Name="FINDINGS" />
      </ItemGroupDef>
      <ItemGroupDef OID="IG.AE" Name="AE" Repeating="Yes" IsReferenceData="No" SASDatasetName="AE" Purpose="Tabulation" def:Structure="One record per adverse event per subject" def:ArchiveLocationID="LF.AE" def:StandardOID="STD.SDTMIG">
        <Description>
          <TranslatedText xml:lang="en">Adverse Events</TranslatedText>
        </Description>
        <ItemRef ItemOID="IT.AE.STUDYID" OrderNumber="1" Mandatory="Yes" KeySequence="1" Role="Identifier" />
        <ItemRef ItemOID="IT.AE.DOMAIN" OrderNumber="2" Mandatory="Yes" Role="Identifier" />
        <ItemRef ItemOID="IT.AE.USUBJID" OrderNumber="3" Mandatory="Yes" KeySequence="2" MethodOID="MT.USUBJID" Role="Identifier" />
        <ItemRef ItemOID="IT.AE.AESEQ" OrderNumber="4" Mandatory="Yes" MethodOID="MT.SEQ" Role="Identifier" />
        <ItemRef ItemOID="IT.AE.AETERM" OrderNumber="5" Mandatory="Yes" MethodOID="MT.TRIM" Role="Topic" />
        <ItemRef ItemOID="IT.AE.AEDECOD" OrderNumber="6" Mandatory="Yes" KeySequence="3" MethodOID="MT.AECODE" Role="Synonym Qualifier" />
        <ItemRef ItemOID="IT.AE.AECAT" OrderNumber="7" Mandatory="No" MethodOID="MT.AECAT" Role="Grouping Qualifier" />
        <ItemRef ItemOID="IT.AE.AEBODSYS" OrderNumber="8" Mandatory="No" MethodOID="MT.AECODE" Role="Record Qualifier" />
        <ItemRef ItemOID="IT.AE.AESEV" OrderNumber="9" Mandatory="No" MethodOID="MT.UPPER" Role="Record Qualifier" />
        <ItemRef ItemOID="IT.AE.AESER" OrderNumber="10" Mandatory="No" Role="Record Qualifier" />
        <ItemRef ItemOID="IT.AE.AEACN" OrderNumber="11" Mandatory="No" MethodOID="MT.AEMAP" Role="Record Qualifier" />
        <ItemRef ItemOID="IT.AE.AEREL" OrderNumber="12" Mandatory="No" MethodOID="MT.AEMAP" Role="Record Qualifier" />
        <ItemRef ItemOID="IT.AE.AEOUT" OrderNumber="13" Mandatory="No" MethodOID="MT.AEMAP" Role="Record Qualifier" />
        <ItemRef ItemOID="IT.AE.AESHOSP" OrderNumber="14" Mandatory="No" Role="Record Qualifier" />
        <ItemRef ItemOID="IT.AE.EPOCH" OrderNumber="15" Mandatory="No" MethodOID="MT.EPOCH" Role="Timing" />
        <ItemRef ItemOID="IT.AE.AESTDTC" OrderNumber="16" Mandatory="No" KeySequence="4" MethodOID="MT.ISODT" Role="Timing" />
        <ItemRef ItemOID="IT.AE.AEENDTC" OrderNumber="17" Mandatory="No" MethodOID="MT.ISODT" Role="Timing" />
        <ItemRef ItemOID="IT.AE.AESTDY" OrderNumber="18" Mandatory="No" MethodOID="MT.DY" Role="Timing" />
        <ItemRef ItemOID="IT.AE.AEENDY" OrderNumber="19" Mandatory="No" MethodOID="MT.DY" Role="Timing" />
        <ItemRef ItemOID="IT.AE.AEENRTPT" OrderNumber="20" Mandatory="No" MethodOID="MT.AEONGO" Role="Timing" />
        <ItemRef ItemOID="IT.AE.AEENTPT" OrderNumber="21" Mandatory="No" MethodOID="MT.AEONGO" Role="Timing" />
        <def:Class Name="EVENTS" />
      </ItemGroupDef>
      <ItemGroupDef OID="IG.IS" Name="IS" Repeating="Yes" IsReferenceData="No" SASDatasetName="IS" Purpose="Tabulation" def:Structure="One record per test per specimen per visit per subject" def:ArchiveLocationID="LF.IS" def:StandardOID="STD.SDTMIG">
        <Description>
          <TranslatedText xml:lang="en">Immunogenicity Specimen Assessments</TranslatedText>
        </Description>
        <ItemRef ItemOID="IT.IS.STUDYID" OrderNumber="1" Mandatory="Yes" KeySequence="1" Role="Identifier" />
        <ItemRef ItemOID="IT.IS.DOMAIN" OrderNumber="2" Mandatory="Yes" Role="Identifier" />
        <ItemRef ItemOID="IT.IS.USUBJID" OrderNumber="3" Mandatory="Yes" KeySequence="2" MethodOID="MT.USUBJID" Role="Identifier" />
        <ItemRef ItemOID="IT.IS.ISSEQ" OrderNumber="4" Mandatory="Yes" MethodOID="MT.SEQ" Role="Identifier" />
        <ItemRef ItemOID="IT.IS.ISTESTCD" OrderNumber="5" Mandatory="Yes" KeySequence="3" Role="Topic" />
        <ItemRef ItemOID="IT.IS.ISTEST" OrderNumber="6" Mandatory="Yes" Role="Synonym Qualifier" />
        <ItemRef ItemOID="IT.IS.ISBDAGNT" OrderNumber="7" Mandatory="No" KeySequence="4" MethodOID="MT.STRAIN" Role="Variable Qualifier" />
        <ItemRef ItemOID="IT.IS.ISCAT" OrderNumber="8" Mandatory="No" Role="Grouping Qualifier" />
        <ItemRef ItemOID="IT.IS.ISORRES" OrderNumber="9" Mandatory="No" MethodOID="MT.ISRES" Role="Result Qualifier" />
        <ItemRef ItemOID="IT.IS.ISORRESU" OrderNumber="10" Mandatory="No" MethodOID="MT.ISRES" Role="Variable Qualifier" />
        <ItemRef ItemOID="IT.IS.ISSTRESC" OrderNumber="11" Mandatory="No" MethodOID="MT.ISRES" Role="Result Qualifier" />
        <ItemRef ItemOID="IT.IS.ISSTRESN" OrderNumber="12" Mandatory="No" MethodOID="MT.ISRES" Role="Result Qualifier" />
        <ItemRef ItemOID="IT.IS.ISSTRESU" OrderNumber="13" Mandatory="No" MethodOID="MT.ISRES" Role="Variable Qualifier" />
        <ItemRef ItemOID="IT.IS.ISSTAT" OrderNumber="14" Mandatory="No" MethodOID="MT.ISRES" Role="Record Qualifier" />
        <ItemRef ItemOID="IT.IS.ISREASND" OrderNumber="15" Mandatory="No" MethodOID="MT.ISRES" Role="Record Qualifier" />
        <ItemRef ItemOID="IT.IS.ISSPEC" OrderNumber="16" Mandatory="No" Role="Record Qualifier" />
        <ItemRef ItemOID="IT.IS.ISMETHOD" OrderNumber="17" Mandatory="No" Role="Record Qualifier" />
        <ItemRef ItemOID="IT.IS.ISLOBXFL" OrderNumber="18" Mandatory="No" MethodOID="MT.LOBXFL" Role="Record Qualifier" />
        <ItemRef ItemOID="IT.IS.ISLLOQ" OrderNumber="19" Mandatory="No" Role="Variable Qualifier" />
        <ItemRef ItemOID="IT.IS.VISITNUM" OrderNumber="20" Mandatory="No" KeySequence="5" MethodOID="MT.VISIT" Role="Timing" />
        <ItemRef ItemOID="IT.IS.VISIT" OrderNumber="21" Mandatory="No" MethodOID="MT.VISIT" Role="Timing" />
        <ItemRef ItemOID="IT.IS.EPOCH" OrderNumber="22" Mandatory="No" MethodOID="MT.EPOCH" Role="Timing" />
        <ItemRef ItemOID="IT.IS.ISDTC" OrderNumber="23" Mandatory="No" MethodOID="MT.ISODT" Role="Timing" />
        <ItemRef ItemOID="IT.IS.ISDY" OrderNumber="24" Mandatory="No" MethodOID="MT.DY" Role="Timing" />
        <def:Class Name="FINDINGS" />
      </ItemGroupDef>
      <ItemGroupDef OID="IG.TA" Name="TA" Repeating="Yes" IsReferenceData="Yes" SASDatasetName="TA" Purpose="Tabulation" def:Structure="One record per planned element per arm" def:ArchiveLocationID="LF.TA" def:CommentOID="COM.TD" def:StandardOID="STD.SDTMIG">
        <Description>
          <TranslatedText xml:lang="en">Trial Arms</TranslatedText>
        </Description>
        <ItemRef ItemOID="IT.TA.STUDYID" OrderNumber="1" Mandatory="Yes" KeySequence="1" Role="Identifier" />
        <ItemRef ItemOID="IT.TA.DOMAIN" OrderNumber="2" Mandatory="Yes" Role="Identifier" />
        <ItemRef ItemOID="IT.TA.ARMCD" OrderNumber="3" Mandatory="Yes" KeySequence="2" Role="Topic" />
        <ItemRef ItemOID="IT.TA.ARM" OrderNumber="4" Mandatory="Yes" Role="Synonym Qualifier" />
        <ItemRef ItemOID="IT.TA.TAETORD" OrderNumber="5" Mandatory="Yes" KeySequence="3" Role="Timing" />
        <ItemRef ItemOID="IT.TA.ETCD" OrderNumber="6" Mandatory="Yes" Role="Record Qualifier" />
        <ItemRef ItemOID="IT.TA.ELEMENT" OrderNumber="7" Mandatory="No" Role="Synonym Qualifier" />
        <ItemRef ItemOID="IT.TA.TABRANCH" OrderNumber="8" Mandatory="No" Role="Rule" />
        <ItemRef ItemOID="IT.TA.TATRANS" OrderNumber="9" Mandatory="No" Role="Rule" />
        <ItemRef ItemOID="IT.TA.EPOCH" OrderNumber="10" Mandatory="Yes" Role="Timing" />
        <def:Class Name="TRIAL DESIGN" />
      </ItemGroupDef>
      <ItemGroupDef OID="IG.TE" Name="TE" Repeating="Yes" IsReferenceData="Yes" SASDatasetName="TE" Purpose="Tabulation" def:Structure="One record per planned element" def:ArchiveLocationID="LF.TE" def:CommentOID="COM.TD" def:StandardOID="STD.SDTMIG">
        <Description>
          <TranslatedText xml:lang="en">Trial Elements</TranslatedText>
        </Description>
        <ItemRef ItemOID="IT.TE.STUDYID" OrderNumber="1" Mandatory="Yes" KeySequence="1" Role="Identifier" />
        <ItemRef ItemOID="IT.TE.DOMAIN" OrderNumber="2" Mandatory="Yes" Role="Identifier" />
        <ItemRef ItemOID="IT.TE.ETCD" OrderNumber="3" Mandatory="Yes" KeySequence="2" Role="Topic" />
        <ItemRef ItemOID="IT.TE.ELEMENT" OrderNumber="4" Mandatory="Yes" Role="Synonym Qualifier" />
        <ItemRef ItemOID="IT.TE.TESTRL" OrderNumber="5" Mandatory="Yes" Role="Rule" />
        <ItemRef ItemOID="IT.TE.TEENRL" OrderNumber="6" Mandatory="No" Role="Rule" />
        <ItemRef ItemOID="IT.TE.TEDUR" OrderNumber="7" Mandatory="No" Role="Timing" />
        <def:Class Name="TRIAL DESIGN" />
      </ItemGroupDef>
      <ItemGroupDef OID="IG.TV" Name="TV" Repeating="Yes" IsReferenceData="Yes" SASDatasetName="TV" Purpose="Tabulation" def:Structure="One record per planned visit per arm" def:ArchiveLocationID="LF.TV" def:CommentOID="COM.TD" def:StandardOID="STD.SDTMIG">
        <Description>
          <TranslatedText xml:lang="en">Trial Visits</TranslatedText>
        </Description>
        <ItemRef ItemOID="IT.TV.STUDYID" OrderNumber="1" Mandatory="Yes" KeySequence="1" Role="Identifier" />
        <ItemRef ItemOID="IT.TV.DOMAIN" OrderNumber="2" Mandatory="Yes" Role="Identifier" />
        <ItemRef ItemOID="IT.TV.VISITNUM" OrderNumber="3" Mandatory="Yes" KeySequence="3" Role="Topic" />
        <ItemRef ItemOID="IT.TV.VISIT" OrderNumber="4" Mandatory="Yes" Role="Synonym Qualifier" />
        <ItemRef ItemOID="IT.TV.VISITDY" OrderNumber="5" Mandatory="No" Role="Timing" />
        <ItemRef ItemOID="IT.TV.ARMCD" OrderNumber="6" Mandatory="No" KeySequence="2" Role="Record Qualifier" />
        <ItemRef ItemOID="IT.TV.ARM" OrderNumber="7" Mandatory="No" Role="Synonym Qualifier" />
        <ItemRef ItemOID="IT.TV.TVSTRL" OrderNumber="8" Mandatory="Yes" Role="Rule" />
        <ItemRef ItemOID="IT.TV.TVENRL" OrderNumber="9" Mandatory="No" Role="Rule" />
        <def:Class Name="TRIAL DESIGN" />
      </ItemGroupDef>
      <ItemGroupDef OID="IG.TI" Name="TI" Repeating="Yes" IsReferenceData="Yes" SASDatasetName="TI" Purpose="Tabulation" def:Structure="One record per I/E criterion" def:ArchiveLocationID="LF.TI" def:CommentOID="COM.TD" def:StandardOID="STD.SDTMIG">
        <Description>
          <TranslatedText xml:lang="en">Trial Inclusion/Exclusion Criteria</TranslatedText>
        </Description>
        <ItemRef ItemOID="IT.TI.STUDYID" OrderNumber="1" Mandatory="Yes" KeySequence="1" Role="Identifier" />
        <ItemRef ItemOID="IT.TI.DOMAIN" OrderNumber="2" Mandatory="Yes" Role="Identifier" />
        <ItemRef ItemOID="IT.TI.IETESTCD" OrderNumber="3" Mandatory="Yes" KeySequence="2" Role="Topic" />
        <ItemRef ItemOID="IT.TI.IETEST" OrderNumber="4" Mandatory="Yes" Role="Synonym Qualifier" />
        <ItemRef ItemOID="IT.TI.IECAT" OrderNumber="5" Mandatory="Yes" Role="Grouping Qualifier" />
        <ItemRef ItemOID="IT.TI.TIVERS" OrderNumber="6" Mandatory="No" Role="Record Qualifier" />
        <def:Class Name="TRIAL DESIGN" />
      </ItemGroupDef>
      <ItemGroupDef OID="IG.TS" Name="TS" Repeating="Yes" IsReferenceData="Yes" SASDatasetName="TS" Purpose="Tabulation" def:Structure="One record per trial summary parameter value" def:ArchiveLocationID="LF.TS" def:CommentOID="COM.TD" def:StandardOID="STD.SDTMIG">
        <Description>
          <TranslatedText xml:lang="en">Trial Summary</TranslatedText>
        </Description>
        <ItemRef ItemOID="IT.TS.STUDYID" OrderNumber="1" Mandatory="Yes" KeySequence="1" Role="Identifier" />
        <ItemRef ItemOID="IT.TS.DOMAIN" OrderNumber="2" Mandatory="Yes" Role="Identifier" />
        <ItemRef ItemOID="IT.TS.TSSEQ" OrderNumber="3" Mandatory="Yes" KeySequence="3" Role="Identifier" />
        <ItemRef ItemOID="IT.TS.TSPARMCD" OrderNumber="4" Mandatory="Yes" KeySequence="2" Role="Topic" />
        <ItemRef ItemOID="IT.TS.TSPARM" OrderNumber="5" Mandatory="Yes" Role="Synonym Qualifier" />
        <ItemRef ItemOID="IT.TS.TSVAL" OrderNumber="6" Mandatory="No" Role="Result Qualifier" />
        <ItemRef ItemOID="IT.TS.TSVALNF" OrderNumber="7" Mandatory="No" Role="Result Qualifier" />
        <ItemRef ItemOID="IT.TS.TSVALCD" OrderNumber="8" Mandatory="No" Role="Result Qualifier" />
        <ItemRef ItemOID="IT.TS.TSVCDREF" OrderNumber="9" Mandatory="No" Role="Result Qualifier" />
        <ItemRef ItemOID="IT.TS.TSVCDVER" OrderNumber="10" Mandatory="No" Role="Result Qualifier" />
        <def:Class Name="TRIAL DESIGN" />
      </ItemGroupDef>
      <ItemDef OID="IT.DM.STUDYID" Name="STUDYID" SASFieldName="STUDYID" DataType="text" Length="7">
        <Description>
          <TranslatedText xml:lang="en">Study Identifier</TranslatedText>
        </Description>
        <def:Origin Type="Assigned" />
      </ItemDef>
      <ItemDef OID="IT.DM.DOMAIN" Name="DOMAIN" SASFieldName="DOMAIN" DataType="text" Length="2">
        <Description>
          <TranslatedText xml:lang="en">Domain Abbreviation</TranslatedText>
        </Description>
        <def:Origin Type="Assigned" />
      </ItemDef>
      <ItemDef OID="IT.DM.USUBJID" Name="USUBJID" SASFieldName="USUBJID" DataType="text" Length="15">
        <Description>
          <TranslatedText xml:lang="en">Unique Subject Identifier</TranslatedText>
        </Description>
        <def:Origin Type="Derived" />
      </ItemDef>
      <ItemDef OID="IT.DM.SUBJID" Name="SUBJID" SASFieldName="SUBJID" DataType="text" Length="7">
        <Description>
          <TranslatedText xml:lang="en">Subject Identifier for the Study</TranslatedText>
        </Description>
        <def:Origin Type="Collected" Source="Sponsor" />
      </ItemDef>
      <ItemDef OID="IT.DM.RFSTDTC" Name="RFSTDTC" SASFieldName="RFSTDTC" DataType="datetime" Length="16">
        <Description>
          <TranslatedText xml:lang="en">Subject Reference Start Date/Time</TranslatedText>
        </Description>
        <def:Origin Type="Derived" />
      </ItemDef>
      <ItemDef OID="IT.DM.RFENDTC" Name="RFENDTC" SASFieldName="RFENDTC" DataType="date" Length="10">
        <Description>
          <TranslatedText xml:lang="en">Subject Reference End Date/Time</TranslatedText>
        </Description>
        <def:Origin Type="Derived" />
      </ItemDef>
      <ItemDef OID="IT.DM.RFXSTDTC" Name="RFXSTDTC" SASFieldName="RFXSTDTC" DataType="datetime" Length="16">
        <Description>
          <TranslatedText xml:lang="en">Date/Time of First Study Treatment</TranslatedText>
        </Description>
        <def:Origin Type="Derived" />
      </ItemDef>
      <ItemDef OID="IT.DM.RFXENDTC" Name="RFXENDTC" SASFieldName="RFXENDTC" DataType="datetime" Length="16">
        <Description>
          <TranslatedText xml:lang="en">Date/Time of Last Study Treatment</TranslatedText>
        </Description>
        <def:Origin Type="Derived" />
      </ItemDef>
      <ItemDef OID="IT.DM.RFICDTC" Name="RFICDTC" SASFieldName="RFICDTC" DataType="date" Length="10">
        <Description>
          <TranslatedText xml:lang="en">Date/Time of Informed Consent</TranslatedText>
        </Description>
        <def:Origin Type="Collected" Source="Investigator" />
      </ItemDef>
      <ItemDef OID="IT.DM.RFPENDTC" Name="RFPENDTC" SASFieldName="RFPENDTC" DataType="date" Length="10">
        <Description>
          <TranslatedText xml:lang="en">Date/Time of End of Participation</TranslatedText>
        </Description>
        <def:Origin Type="Derived" />
      </ItemDef>
      <ItemDef OID="IT.DM.SITEID" Name="SITEID" SASFieldName="SITEID" DataType="text" Length="3">
        <Description>
          <TranslatedText xml:lang="en">Study Site Identifier</TranslatedText>
        </Description>
        <def:Origin Type="Collected" Source="Sponsor" />
      </ItemDef>
      <ItemDef OID="IT.DM.BRTHDTC" Name="BRTHDTC" SASFieldName="BRTHDTC" DataType="date" Length="10">
        <Description>
          <TranslatedText xml:lang="en">Date/Time of Birth</TranslatedText>
        </Description>
        <def:Origin Type="Collected" Source="Investigator" />
      </ItemDef>
      <ItemDef OID="IT.DM.AGE" Name="AGE" SASFieldName="AGE" DataType="integer" Length="8">
        <Description>
          <TranslatedText xml:lang="en">Age</TranslatedText>
        </Description>
        <def:Origin Type="Derived" />
      </ItemDef>
      <ItemDef OID="IT.DM.AGEU" Name="AGEU" SASFieldName="AGEU" DataType="text" Length="5">
        <Description>
          <TranslatedText xml:lang="en">Age Units</TranslatedText>
        </Description>
        <CodeListRef CodeListOID="CL.AGEU" />
        <def:Origin Type="Assigned" />
      </ItemDef>
      <ItemDef OID="IT.DM.SEX" Name="SEX" SASFieldName="SEX" DataType="text" Length="1">
        <Description>
          <TranslatedText xml:lang="en">Sex</TranslatedText>
        </Description>
        <CodeListRef CodeListOID="CL.SEX" />
        <def:Origin Type="Collected" Source="Investigator" />
      </ItemDef>
      <ItemDef OID="IT.DM.RACE" Name="RACE" SASFieldName="RACE" DataType="text" Length="25" def:CommentOID="COM.RACE">
        <Description>
          <TranslatedText xml:lang="en">Race</TranslatedText>
        </Description>
        <CodeListRef CodeListOID="CL.RACE" />
        <def:Origin Type="Collected" Source="Investigator" />
      </ItemDef>
      <ItemDef OID="IT.DM.ETHNIC" Name="ETHNIC" SASFieldName="ETHNIC" DataType="text" Length="22" def:CommentOID="COM.RACE">
        <Description>
          <TranslatedText xml:lang="en">Ethnicity</TranslatedText>
        </Description>
        <CodeListRef CodeListOID="CL.ETHNIC" />
        <def:Origin Type="Collected" Source="Investigator" />
      </ItemDef>
      <ItemDef OID="IT.DM.ARMCD" Name="ARMCD" SASFieldName="ARMCD" DataType="text" Length="4">
        <Description>
          <TranslatedText xml:lang="en">Planned Arm Code</TranslatedText>
        </Description>
        <def:Origin Type="Derived" />
      </ItemDef>
      <ItemDef OID="IT.DM.ARM" Name="ARM" SASFieldName="ARM" DataType="text" Length="15">
        <Description>
          <TranslatedText xml:lang="en">Description of Planned Arm</TranslatedText>
        </Description>
        <def:Origin Type="Derived" />
      </ItemDef>
      <ItemDef OID="IT.DM.ACTARMCD" Name="ACTARMCD" SASFieldName="ACTARMCD" DataType="text" Length="4">
        <Description>
          <TranslatedText xml:lang="en">Actual Arm Code</TranslatedText>
        </Description>
        <def:Origin Type="Derived" />
      </ItemDef>
      <ItemDef OID="IT.DM.ACTARM" Name="ACTARM" SASFieldName="ACTARM" DataType="text" Length="15">
        <Description>
          <TranslatedText xml:lang="en">Description of Actual Arm</TranslatedText>
        </Description>
        <def:Origin Type="Derived" />
      </ItemDef>
      <ItemDef OID="IT.DM.ARMNRS" Name="ARMNRS" SASFieldName="ARMNRS" DataType="text" Length="21" def:CommentOID="COM.ARMNRS">
        <Description>
          <TranslatedText xml:lang="en">Reason Arm and/or Actual Arm is Null</TranslatedText>
        </Description>
        <CodeListRef CodeListOID="CL.ARMNULRS" />
        <def:Origin Type="Derived" />
      </ItemDef>
      <ItemDef OID="IT.DM.COUNTRY" Name="COUNTRY" SASFieldName="COUNTRY" DataType="text" Length="3">
        <Description>
          <TranslatedText xml:lang="en">Country</TranslatedText>
        </Description>
        <def:Origin Type="Assigned" />
      </ItemDef>
      <ItemDef OID="IT.DM.DMDTC" Name="DMDTC" SASFieldName="DMDTC" DataType="date" Length="10">
        <Description>
          <TranslatedText xml:lang="en">Date/Time of Collection</TranslatedText>
        </Description>
        <def:Origin Type="Collected" Source="Investigator" />
      </ItemDef>
      <ItemDef OID="IT.DM.DMDY" Name="DMDY" SASFieldName="DMDY" DataType="integer" Length="8">
        <Description>
          <TranslatedText xml:lang="en">Study Day of Collection</TranslatedText>
        </Description>
        <def:Origin Type="Derived" />
      </ItemDef>
      <ItemDef OID="IT.DS.STUDYID" Name="STUDYID" SASFieldName="STUDYID" DataType="text" Length="7">
        <Description>
          <TranslatedText xml:lang="en">Study Identifier</TranslatedText>
        </Description>
        <def:Origin Type="Assigned" />
      </ItemDef>
      <ItemDef OID="IT.DS.DOMAIN" Name="DOMAIN" SASFieldName="DOMAIN" DataType="text" Length="2">
        <Description>
          <TranslatedText xml:lang="en">Domain Abbreviation</TranslatedText>
        </Description>
        <def:Origin Type="Assigned" />
      </ItemDef>
      <ItemDef OID="IT.DS.USUBJID" Name="USUBJID" SASFieldName="USUBJID" DataType="text" Length="15">
        <Description>
          <TranslatedText xml:lang="en">Unique Subject Identifier</TranslatedText>
        </Description>
        <def:Origin Type="Derived" />
      </ItemDef>
      <ItemDef OID="IT.DS.DSSEQ" Name="DSSEQ" SASFieldName="DSSEQ" DataType="integer" Length="8">
        <Description>
          <TranslatedText xml:lang="en">Sequence Number</TranslatedText>
        </Description>
        <def:Origin Type="Derived" />
      </ItemDef>
      <ItemDef OID="IT.DS.DSREFID" Name="DSREFID" SASFieldName="DSREFID" DataType="text" Length="5">
        <Description>
          <TranslatedText xml:lang="en">Reference ID</TranslatedText>
        </Description>
        <def:Origin Type="Collected" Source="Sponsor" />
      </ItemDef>
      <ItemDef OID="IT.DS.DSTERM" Name="DSTERM" SASFieldName="DSTERM" DataType="text" Length="25">
        <Description>
          <TranslatedText xml:lang="en">Reported Term for the Disposition Event</TranslatedText>
        </Description>
        <def:Origin Type="Collected" Source="Investigator" />
      </ItemDef>
      <ItemDef OID="IT.DS.DSDECOD" Name="DSDECOD" SASFieldName="DSDECOD" DataType="text" Length="25" def:CommentOID="COM.DS">
        <Description>
          <TranslatedText xml:lang="en">Standardized Disposition Term</TranslatedText>
        </Description>
        <def:Origin Type="Derived" />
        <def:ValueListRef ValueListOID="VL.DS.DSDECOD" />
      </ItemDef>
      <ItemDef OID="IT.DS.DSCAT" Name="DSCAT" SASFieldName="DSCAT" DataType="text" Length="18">
        <Description>
          <TranslatedText xml:lang="en">Category for Disposition Event</TranslatedText>
        </Description>
        <CodeListRef CodeListOID="CL.DSCAT" />
        <def:Origin Type="Assigned" />
      </ItemDef>
      <ItemDef OID="IT.DS.EPOCH" Name="EPOCH" SASFieldName="EPOCH" DataType="text" Length="9">
        <Description>
          <TranslatedText xml:lang="en">Epoch</TranslatedText>
        </Description>
        <CodeListRef CodeListOID="CL.EPOCH" />
        <def:Origin Type="Derived" />
      </ItemDef>
      <ItemDef OID="IT.DS.DSSTDTC" Name="DSSTDTC" SASFieldName="DSSTDTC" DataType="date" Length="10">
        <Description>
          <TranslatedText xml:lang="en">Start Date/Time of Disposition Event</TranslatedText>
        </Description>
        <def:Origin Type="Collected" Source="Investigator" />
      </ItemDef>
      <ItemDef OID="IT.DS.DSSTDY" Name="DSSTDY" SASFieldName="DSSTDY" DataType="integer" Length="8">
        <Description>
          <TranslatedText xml:lang="en">Study Day of Start of Disposition Event</TranslatedText>
        </Description>
        <def:Origin Type="Derived" />
      </ItemDef>
      <ItemDef OID="IT.EX.STUDYID" Name="STUDYID" SASFieldName="STUDYID" DataType="text" Length="7">
        <Description>
          <TranslatedText xml:lang="en">Study Identifier</TranslatedText>
        </Description>
        <def:Origin Type="Assigned" />
      </ItemDef>
      <ItemDef OID="IT.EX.DOMAIN" Name="DOMAIN" SASFieldName="DOMAIN" DataType="text" Length="2">
        <Description>
          <TranslatedText xml:lang="en">Domain Abbreviation</TranslatedText>
        </Description>
        <def:Origin Type="Assigned" />
      </ItemDef>
      <ItemDef OID="IT.EX.USUBJID" Name="USUBJID" SASFieldName="USUBJID" DataType="text" Length="15">
        <Description>
          <TranslatedText xml:lang="en">Unique Subject Identifier</TranslatedText>
        </Description>
        <def:Origin Type="Derived" />
      </ItemDef>
      <ItemDef OID="IT.EX.EXSEQ" Name="EXSEQ" SASFieldName="EXSEQ" DataType="integer" Length="8">
        <Description>
          <TranslatedText xml:lang="en">Sequence Number</TranslatedText>
        </Description>
        <def:Origin Type="Derived" />
      </ItemDef>
      <ItemDef OID="IT.EX.EXTRT" Name="EXTRT" SASFieldName="EXTRT" DataType="text" Length="8" def:CommentOID="COM.BLIND">
        <Description>
          <TranslatedText xml:lang="en">Name of Treatment</TranslatedText>
        </Description>
        <def:Origin Type="Derived" />
      </ItemDef>
      <ItemDef OID="IT.EX.EXCAT" Name="EXCAT" SASFieldName="EXCAT" DataType="text" Length="13">
        <Description>
          <TranslatedText xml:lang="en">Category of Treatment</TranslatedText>
        </Description>
        <def:Origin Type="Assigned" />
      </ItemDef>
      <ItemDef OID="IT.EX.EXDOSE" Name="EXDOSE" SASFieldName="EXDOSE" DataType="integer" Length="8">
        <Description>
          <TranslatedText xml:lang="en">Dose</TranslatedText>
        </Description>
        <def:Origin Type="Collected" Source="Investigator" />
      </ItemDef>
      <ItemDef OID="IT.EX.EXDOSU" Name="EXDOSU" SASFieldName="EXDOSU" DataType="text" Length="2">
        <Description>
          <TranslatedText xml:lang="en">Dose Units</TranslatedText>
        </Description>
        <CodeListRef CodeListOID="CL.UNIT" />
        <def:Origin Type="Collected" Source="Investigator" />
      </ItemDef>
      <ItemDef OID="IT.EX.EXDOSFRM" Name="EXDOSFRM" SASFieldName="EXDOSFRM" DataType="text" Length="9">
        <Description>
          <TranslatedText xml:lang="en">Dose Form</TranslatedText>
        </Description>
        <CodeListRef CodeListOID="CL.FRM" />
        <def:Origin Type="Assigned" />
      </ItemDef>
      <ItemDef OID="IT.EX.EXDOSFRQ" Name="EXDOSFRQ" SASFieldName="EXDOSFRQ" DataType="text" Length="4">
        <Description>
          <TranslatedText xml:lang="en">Dosing Frequency per Interval</TranslatedText>
        </Description>
        <CodeListRef CodeListOID="CL.FREQ" />
        <def:Origin Type="Assigned" />
      </ItemDef>
      <ItemDef OID="IT.EX.EXROUTE" Name="EXROUTE" SASFieldName="EXROUTE" DataType="text" Length="13">
        <Description>
          <TranslatedText xml:lang="en">Route of Administration</TranslatedText>
        </Description>
        <CodeListRef CodeListOID="CL.ROUTE" />
        <def:Origin Type="Collected" Source="Investigator" />
      </ItemDef>
      <ItemDef OID="IT.EX.EXLOT" Name="EXLOT" SASFieldName="EXLOT" DataType="text" Length="6">
        <Description>
          <TranslatedText xml:lang="en">Lot Number</TranslatedText>
        </Description>
        <def:Origin Type="Collected" Source="Investigator" />
      </ItemDef>
      <ItemDef OID="IT.EX.EXLOC" Name="EXLOC" SASFieldName="EXLOC" DataType="text" Length="14">
        <Description>
          <TranslatedText xml:lang="en">Location of Dose Administration</TranslatedText>
        </Description>
        <CodeListRef CodeListOID="CL.LOC" />
        <def:Origin Type="Collected" Source="Investigator" />
      </ItemDef>
      <ItemDef OID="IT.EX.EXLAT" Name="EXLAT" SASFieldName="EXLAT" DataType="text" Length="5">
        <Description>
          <TranslatedText xml:lang="en">Laterality</TranslatedText>
        </Description>
        <CodeListRef CodeListOID="CL.LAT" />
        <def:Origin Type="Collected" Source="Investigator" />
      </ItemDef>
      <ItemDef OID="IT.EX.EPOCH" Name="EPOCH" SASFieldName="EPOCH" DataType="text" Length="9">
        <Description>
          <TranslatedText xml:lang="en">Epoch</TranslatedText>
        </Description>
        <CodeListRef CodeListOID="CL.EPOCH" />
        <def:Origin Type="Derived" />
      </ItemDef>
      <ItemDef OID="IT.EX.EXSTDTC" Name="EXSTDTC" SASFieldName="EXSTDTC" DataType="datetime" Length="16">
        <Description>
          <TranslatedText xml:lang="en">Start Date/Time of Treatment</TranslatedText>
        </Description>
        <def:Origin Type="Collected" Source="Investigator" />
      </ItemDef>
      <ItemDef OID="IT.EX.EXENDTC" Name="EXENDTC" SASFieldName="EXENDTC" DataType="datetime" Length="16">
        <Description>
          <TranslatedText xml:lang="en">End Date/Time of Treatment</TranslatedText>
        </Description>
        <def:Origin Type="Collected" Source="Investigator" />
      </ItemDef>
      <ItemDef OID="IT.EX.EXSTDY" Name="EXSTDY" SASFieldName="EXSTDY" DataType="integer" Length="8">
        <Description>
          <TranslatedText xml:lang="en">Study Day of Start of Treatment</TranslatedText>
        </Description>
        <def:Origin Type="Derived" />
      </ItemDef>
      <ItemDef OID="IT.EX.EXENDY" Name="EXENDY" SASFieldName="EXENDY" DataType="integer" Length="8">
        <Description>
          <TranslatedText xml:lang="en">Study Day of End of Treatment</TranslatedText>
        </Description>
        <def:Origin Type="Derived" />
      </ItemDef>
      <ItemDef OID="IT.SV.STUDYID" Name="STUDYID" SASFieldName="STUDYID" DataType="text" Length="7">
        <Description>
          <TranslatedText xml:lang="en">Study Identifier</TranslatedText>
        </Description>
        <def:Origin Type="Assigned" />
      </ItemDef>
      <ItemDef OID="IT.SV.DOMAIN" Name="DOMAIN" SASFieldName="DOMAIN" DataType="text" Length="2">
        <Description>
          <TranslatedText xml:lang="en">Domain Abbreviation</TranslatedText>
        </Description>
        <def:Origin Type="Assigned" />
      </ItemDef>
      <ItemDef OID="IT.SV.USUBJID" Name="USUBJID" SASFieldName="USUBJID" DataType="text" Length="15">
        <Description>
          <TranslatedText xml:lang="en">Unique Subject Identifier</TranslatedText>
        </Description>
        <def:Origin Type="Derived" />
      </ItemDef>
      <ItemDef OID="IT.SV.VISITNUM" Name="VISITNUM" SASFieldName="VISITNUM" DataType="float" Length="8">
        <Description>
          <TranslatedText xml:lang="en">Visit Number</TranslatedText>
        </Description>
        <def:Origin Type="Derived" />
      </ItemDef>
      <ItemDef OID="IT.SV.VISIT" Name="VISIT" SASFieldName="VISIT" DataType="text" Length="9">
        <Description>
          <TranslatedText xml:lang="en">Visit Name</TranslatedText>
        </Description>
        <def:Origin Type="Derived" />
      </ItemDef>
      <ItemDef OID="IT.SV.SVPRESP" Name="SVPRESP" SASFieldName="SVPRESP" DataType="text" Length="1">
        <Description>
          <TranslatedText xml:lang="en">Pre-specified</TranslatedText>
        </Description>
        <CodeListRef CodeListOID="CL.NY" />
        <def:Origin Type="Assigned" />
      </ItemDef>
      <ItemDef OID="IT.SV.SVOCCUR" Name="SVOCCUR" SASFieldName="SVOCCUR" DataType="text" Length="1">
        <Description>
          <TranslatedText xml:lang="en">Occurrence</TranslatedText>
        </Description>
        <CodeListRef CodeListOID="CL.NY" />
        <def:Origin Type="Assigned" />
      </ItemDef>
      <ItemDef OID="IT.SV.VISITDY" Name="VISITDY" SASFieldName="VISITDY" DataType="integer" Length="8">
        <Description>
          <TranslatedText xml:lang="en">Planned Study Day of Visit</TranslatedText>
        </Description>
        <def:Origin Type="Derived" />
      </ItemDef>
      <ItemDef OID="IT.SV.SVSTDTC" Name="SVSTDTC" SASFieldName="SVSTDTC" DataType="date" Length="10">
        <Description>
          <TranslatedText xml:lang="en">Start Date/Time of Observation</TranslatedText>
        </Description>
        <def:Origin Type="Collected" Source="Investigator" />
      </ItemDef>
      <ItemDef OID="IT.SV.SVENDTC" Name="SVENDTC" SASFieldName="SVENDTC" DataType="date" Length="10">
        <Description>
          <TranslatedText xml:lang="en">End Date/Time of Observation</TranslatedText>
        </Description>
        <def:Origin Type="Collected" Source="Investigator" />
      </ItemDef>
      <ItemDef OID="IT.SV.SVSTDY" Name="SVSTDY" SASFieldName="SVSTDY" DataType="integer" Length="8">
        <Description>
          <TranslatedText xml:lang="en">Study Day of Start of Observation</TranslatedText>
        </Description>
        <def:Origin Type="Derived" />
      </ItemDef>
      <ItemDef OID="IT.SV.SVENDY" Name="SVENDY" SASFieldName="SVENDY" DataType="integer" Length="8">
        <Description>
          <TranslatedText xml:lang="en">Study Day of End of Observation</TranslatedText>
        </Description>
        <def:Origin Type="Derived" />
      </ItemDef>
      <ItemDef OID="IT.IE.STUDYID" Name="STUDYID" SASFieldName="STUDYID" DataType="text" Length="7">
        <Description>
          <TranslatedText xml:lang="en">Study Identifier</TranslatedText>
        </Description>
        <def:Origin Type="Assigned" />
      </ItemDef>
      <ItemDef OID="IT.IE.DOMAIN" Name="DOMAIN" SASFieldName="DOMAIN" DataType="text" Length="2">
        <Description>
          <TranslatedText xml:lang="en">Domain Abbreviation</TranslatedText>
        </Description>
        <def:Origin Type="Assigned" />
      </ItemDef>
      <ItemDef OID="IT.IE.USUBJID" Name="USUBJID" SASFieldName="USUBJID" DataType="text" Length="15">
        <Description>
          <TranslatedText xml:lang="en">Unique Subject Identifier</TranslatedText>
        </Description>
        <def:Origin Type="Derived" />
      </ItemDef>
      <ItemDef OID="IT.IE.IESEQ" Name="IESEQ" SASFieldName="IESEQ" DataType="integer" Length="8">
        <Description>
          <TranslatedText xml:lang="en">Sequence Number</TranslatedText>
        </Description>
        <def:Origin Type="Derived" />
      </ItemDef>
      <ItemDef OID="IT.IE.IETESTCD" Name="IETESTCD" SASFieldName="IETESTCD" DataType="text" Length="6">
        <Description>
          <TranslatedText xml:lang="en">Inclusion/Exclusion Criterion Short Name</TranslatedText>
        </Description>
        <def:Origin Type="Derived" />
      </ItemDef>
      <ItemDef OID="IT.IE.IETEST" Name="IETEST" SASFieldName="IETEST" DataType="text" Length="68">
        <Description>
          <TranslatedText xml:lang="en">Inclusion/Exclusion Criterion</TranslatedText>
        </Description>
        <def:Origin Type="Derived" />
      </ItemDef>
      <ItemDef OID="IT.IE.IECAT" Name="IECAT" SASFieldName="IECAT" DataType="text" Length="9">
        <Description>
          <TranslatedText xml:lang="en">Inclusion/Exclusion Category</TranslatedText>
        </Description>
        <def:Origin Type="Derived" />
      </ItemDef>
      <ItemDef OID="IT.IE.IEORRES" Name="IEORRES" SASFieldName="IEORRES" DataType="text" Length="1">
        <Description>
          <TranslatedText xml:lang="en">I/E Criterion Original Result</TranslatedText>
        </Description>
        <CodeListRef CodeListOID="CL.NY" />
        <def:Origin Type="Derived" />
      </ItemDef>
      <ItemDef OID="IT.IE.IESTRESC" Name="IESTRESC" SASFieldName="IESTRESC" DataType="text" Length="1">
        <Description>
          <TranslatedText xml:lang="en">I/E Criterion Result in Std Format</TranslatedText>
        </Description>
        <CodeListRef CodeListOID="CL.NY" />
        <def:Origin Type="Derived" />
      </ItemDef>
      <ItemDef OID="IT.IE.VISITNUM" Name="VISITNUM" SASFieldName="VISITNUM" DataType="float" Length="8">
        <Description>
          <TranslatedText xml:lang="en">Visit Number</TranslatedText>
        </Description>
        <def:Origin Type="Assigned" />
      </ItemDef>
      <ItemDef OID="IT.IE.VISIT" Name="VISIT" SASFieldName="VISIT" DataType="text" Length="9">
        <Description>
          <TranslatedText xml:lang="en">Visit Name</TranslatedText>
        </Description>
        <def:Origin Type="Assigned" />
      </ItemDef>
      <ItemDef OID="IT.IE.EPOCH" Name="EPOCH" SASFieldName="EPOCH" DataType="text" Length="9">
        <Description>
          <TranslatedText xml:lang="en">Epoch</TranslatedText>
        </Description>
        <CodeListRef CodeListOID="CL.EPOCH" />
        <def:Origin Type="Assigned" />
      </ItemDef>
      <ItemDef OID="IT.IE.IEDTC" Name="IEDTC" SASFieldName="IEDTC" DataType="date" Length="10">
        <Description>
          <TranslatedText xml:lang="en">Date/Time of Collection</TranslatedText>
        </Description>
        <def:Origin Type="Collected" Source="Investigator" />
      </ItemDef>
      <ItemDef OID="IT.IE.IEDY" Name="IEDY" SASFieldName="IEDY" DataType="integer" Length="8">
        <Description>
          <TranslatedText xml:lang="en">Study Day of Collection</TranslatedText>
        </Description>
        <def:Origin Type="Derived" />
      </ItemDef>
      <ItemDef OID="IT.VS.STUDYID" Name="STUDYID" SASFieldName="STUDYID" DataType="text" Length="7">
        <Description>
          <TranslatedText xml:lang="en">Study Identifier</TranslatedText>
        </Description>
        <def:Origin Type="Assigned" />
      </ItemDef>
      <ItemDef OID="IT.VS.DOMAIN" Name="DOMAIN" SASFieldName="DOMAIN" DataType="text" Length="2">
        <Description>
          <TranslatedText xml:lang="en">Domain Abbreviation</TranslatedText>
        </Description>
        <def:Origin Type="Assigned" />
      </ItemDef>
      <ItemDef OID="IT.VS.USUBJID" Name="USUBJID" SASFieldName="USUBJID" DataType="text" Length="15">
        <Description>
          <TranslatedText xml:lang="en">Unique Subject Identifier</TranslatedText>
        </Description>
        <def:Origin Type="Derived" />
      </ItemDef>
      <ItemDef OID="IT.VS.VSSEQ" Name="VSSEQ" SASFieldName="VSSEQ" DataType="integer" Length="8">
        <Description>
          <TranslatedText xml:lang="en">Sequence Number</TranslatedText>
        </Description>
        <def:Origin Type="Derived" />
      </ItemDef>
      <ItemDef OID="IT.VS.VSTESTCD" Name="VSTESTCD" SASFieldName="VSTESTCD" DataType="text" Length="5">
        <Description>
          <TranslatedText xml:lang="en">Vital Signs Test Short Name</TranslatedText>
        </Description>
        <CodeListRef CodeListOID="CL.VSTESTCD" />
        <def:Origin Type="Derived" />
      </ItemDef>
      <ItemDef OID="IT.VS.VSTEST" Name="VSTEST" SASFieldName="VSTEST" DataType="text" Length="24">
        <Description>
          <TranslatedText xml:lang="en">Vital Signs Test Name</TranslatedText>
        </Description>
        <CodeListRef CodeListOID="CL.VSTEST" />
        <def:Origin Type="Derived" />
      </ItemDef>
      <ItemDef OID="IT.VS.VSCAT" Name="VSCAT" SASFieldName="VSCAT" DataType="text" Length="14" def:CommentOID="COM.FLAT">
        <Description>
          <TranslatedText xml:lang="en">Category for Vital Signs</TranslatedText>
        </Description>
        <def:Origin Type="Derived" />
      </ItemDef>
      <ItemDef OID="IT.VS.VSSCAT" Name="VSSCAT" SASFieldName="VSSCAT" DataType="text" Length="8" def:CommentOID="COM.FLAT">
        <Description>
          <TranslatedText xml:lang="en">Subcategory for Vital Signs</TranslatedText>
        </Description>
        <def:Origin Type="Derived" />
      </ItemDef>
      <ItemDef OID="IT.VS.VSORRES" Name="VSORRES" SASFieldName="VSORRES" DataType="text" Length="4">
        <Description>
          <TranslatedText xml:lang="en">Result or Finding in Original Units</TranslatedText>
        </Description>
        <def:Origin Type="Collected" Source="Investigator" />
        <def:ValueListRef ValueListOID="VL.VS.VSORRES" />
      </ItemDef>
      <ItemDef OID="IT.VS.VSORRESU" Name="VSORRESU" SASFieldName="VSORRESU" DataType="text" Length="9">
        <Description>
          <TranslatedText xml:lang="en">Original Units</TranslatedText>
        </Description>
        <CodeListRef CodeListOID="CL.VSRESU" />
        <def:Origin Type="Collected" Source="Investigator" />
        <def:ValueListRef ValueListOID="VL.VS.VSORRESU" />
      </ItemDef>
      <ItemDef OID="IT.VS.VSSTRESC" Name="VSSTRESC" SASFieldName="VSSTRESC" DataType="text" Length="4" def:CommentOID="COM.TEMP">
        <Description>
          <TranslatedText xml:lang="en">Character Result/Finding in Std Format</TranslatedText>
        </Description>
        <def:Origin Type="Derived" />
      </ItemDef>
      <ItemDef OID="IT.VS.VSSTRESN" Name="VSSTRESN" SASFieldName="VSSTRESN" DataType="float" Length="8" def:CommentOID="COM.TEMP">
        <Description>
          <TranslatedText xml:lang="en">Numeric Result/Finding in Standard Units</TranslatedText>
        </Description>
        <def:Origin Type="Derived" />
        <def:ValueListRef ValueListOID="VL.VS.VSSTRESN" />
      </ItemDef>
      <ItemDef OID="IT.VS.VSSTRESU" Name="VSSTRESU" SASFieldName="VSSTRESU" DataType="text" Length="9" def:CommentOID="COM.TEMP">
        <Description>
          <TranslatedText xml:lang="en">Standard Units</TranslatedText>
        </Description>
        <CodeListRef CodeListOID="CL.VSRESU" />
        <def:Origin Type="Derived" />
      </ItemDef>
      <ItemDef OID="IT.VS.VSLOBXFL" Name="VSLOBXFL" SASFieldName="VSLOBXFL" DataType="text" Length="1">
        <Description>
          <TranslatedText xml:lang="en">Last Observation Before Exposure Flag</TranslatedText>
        </Description>
        <CodeListRef CodeListOID="CL.NY" />
        <def:Origin Type="Derived" />
      </ItemDef>
      <ItemDef OID="IT.VS.VISITNUM" Name="VISITNUM" SASFieldName="VISITNUM" DataType="float" Length="8">
        <Description>
          <TranslatedText xml:lang="en">Visit Number</TranslatedText>
        </Description>
        <def:Origin Type="Derived" />
      </ItemDef>
      <ItemDef OID="IT.VS.VISIT" Name="VISIT" SASFieldName="VISIT" DataType="text" Length="9">
        <Description>
          <TranslatedText xml:lang="en">Visit Name</TranslatedText>
        </Description>
        <def:Origin Type="Derived" />
      </ItemDef>
      <ItemDef OID="IT.VS.EPOCH" Name="EPOCH" SASFieldName="EPOCH" DataType="text" Length="9">
        <Description>
          <TranslatedText xml:lang="en">Epoch</TranslatedText>
        </Description>
        <CodeListRef CodeListOID="CL.EPOCH" />
        <def:Origin Type="Derived" />
      </ItemDef>
      <ItemDef OID="IT.VS.VSDTC" Name="VSDTC" SASFieldName="VSDTC" DataType="date" Length="10">
        <Description>
          <TranslatedText xml:lang="en">Date/Time of Measurements</TranslatedText>
        </Description>
        <def:Origin Type="Collected" Source="Investigator" />
      </ItemDef>
      <ItemDef OID="IT.VS.VSDY" Name="VSDY" SASFieldName="VSDY" DataType="integer" Length="8">
        <Description>
          <TranslatedText xml:lang="en">Study Day of Vital Signs</TranslatedText>
        </Description>
        <def:Origin Type="Derived" />
      </ItemDef>
      <ItemDef OID="IT.VS.VSTPT" Name="VSTPT" SASFieldName="VSTPT" DataType="text" Length="5">
        <Description>
          <TranslatedText xml:lang="en">Planned Time Point Name</TranslatedText>
        </Description>
        <def:Origin Type="Derived" />
      </ItemDef>
      <ItemDef OID="IT.VS.VSTPTNUM" Name="VSTPTNUM" SASFieldName="VSTPTNUM" DataType="integer" Length="8">
        <Description>
          <TranslatedText xml:lang="en">Planned Time Point Number</TranslatedText>
        </Description>
        <def:Origin Type="Derived" />
      </ItemDef>
      <ItemDef OID="IT.VS.VSTPTREF" Name="VSTPTREF" SASFieldName="VSTPTREF" DataType="text" Length="11">
        <Description>
          <TranslatedText xml:lang="en">Time Point Reference</TranslatedText>
        </Description>
        <def:Origin Type="Assigned" />
      </ItemDef>
      <ItemDef OID="IT.VS.VSRFTDTC" Name="VSRFTDTC" SASFieldName="VSRFTDTC" DataType="datetime" Length="16">
        <Description>
          <TranslatedText xml:lang="en">Date/Time of Reference Time Point</TranslatedText>
        </Description>
        <def:Origin Type="Derived" />
      </ItemDef>
      <ItemDef OID="IT.CE.STUDYID" Name="STUDYID" SASFieldName="STUDYID" DataType="text" Length="7">
        <Description>
          <TranslatedText xml:lang="en">Study Identifier</TranslatedText>
        </Description>
        <def:Origin Type="Assigned" />
      </ItemDef>
      <ItemDef OID="IT.CE.DOMAIN" Name="DOMAIN" SASFieldName="DOMAIN" DataType="text" Length="2">
        <Description>
          <TranslatedText xml:lang="en">Domain Abbreviation</TranslatedText>
        </Description>
        <def:Origin Type="Assigned" />
      </ItemDef>
      <ItemDef OID="IT.CE.USUBJID" Name="USUBJID" SASFieldName="USUBJID" DataType="text" Length="15">
        <Description>
          <TranslatedText xml:lang="en">Unique Subject Identifier</TranslatedText>
        </Description>
        <def:Origin Type="Derived" />
      </ItemDef>
      <ItemDef OID="IT.CE.CESEQ" Name="CESEQ" SASFieldName="CESEQ" DataType="integer" Length="8">
        <Description>
          <TranslatedText xml:lang="en">Sequence Number</TranslatedText>
        </Description>
        <def:Origin Type="Derived" />
      </ItemDef>
      <ItemDef OID="IT.CE.CEGRPID" Name="CEGRPID" SASFieldName="CEGRPID" DataType="text" Length="24" def:CommentOID="COM.FLAT">
        <Description>
          <TranslatedText xml:lang="en">Group ID</TranslatedText>
        </Description>
        <def:Origin Type="Derived" />
      </ItemDef>
      <ItemDef OID="IT.CE.CETERM" Name="CETERM" SASFieldName="CETERM" DataType="text" Length="10">
        <Description>
          <TranslatedText xml:lang="en">Reported Term for the Clinical Event</TranslatedText>
        </Description>
        <def:Origin Type="Derived" />
      </ItemDef>
      <ItemDef OID="IT.CE.CEDECOD" Name="CEDECOD" SASFieldName="CEDECOD" DataType="text" Length="10">
        <Description>
          <TranslatedText xml:lang="en">Dictionary-Derived Term</TranslatedText>
        </Description>
        <def:Origin Type="Derived" />
      </ItemDef>
      <ItemDef OID="IT.CE.CECAT" Name="CECAT" SASFieldName="CECAT" DataType="text" Length="14">
        <Description>
          <TranslatedText xml:lang="en">Category for the Clinical Event</TranslatedText>
        </Description>
        <def:Origin Type="Assigned" />
      </ItemDef>
      <ItemDef OID="IT.CE.CESCAT" Name="CESCAT" SASFieldName="CESCAT" DataType="text" Length="8">
        <Description>
          <TranslatedText xml:lang="en">Subcategory for the Clinical Event</TranslatedText>
        </Description>
        <def:Origin Type="Derived" />
      </ItemDef>
      <ItemDef OID="IT.CE.CEPRESP" Name="CEPRESP" SASFieldName="CEPRESP" DataType="text" Length="1">
        <Description>
          <TranslatedText xml:lang="en">Clinical Event Pre- specified</TranslatedText>
        </Description>
        <CodeListRef CodeListOID="CL.NY" />
        <def:Origin Type="Assigned" />
      </ItemDef>
      <ItemDef OID="IT.CE.CEOCCUR" Name="CEOCCUR" SASFieldName="CEOCCUR" DataType="text" Length="1" def:CommentOID="COM.GRADE">
        <Description>
          <TranslatedText xml:lang="en">Clinical Event Occurrence</TranslatedText>
        </Description>
        <CodeListRef CodeListOID="CL.NY" />
        <def:Origin Type="Derived" />
      </ItemDef>
      <ItemDef OID="IT.CE.CESEV" Name="CESEV" SASFieldName="CESEV" DataType="text" Length="8" def:CommentOID="COM.GRADE">
        <Description>
          <TranslatedText xml:lang="en">Severity/Intensity</TranslatedText>
        </Description>
        <CodeListRef CodeListOID="CL.AESEV" />
        <def:Origin Type="Derived" />
      </ItemDef>
      <ItemDef OID="IT.CE.CETOXGR" Name="CETOXGR" SASFieldName="CETOXGR" DataType="text" Length="1" def:CommentOID="COM.GRADE">
        <Description>
          <TranslatedText xml:lang="en">Standard Toxicity Grade</TranslatedText>
        </Description>
        <def:Origin Type="Derived" />
      </ItemDef>
      <ItemDef OID="IT.CE.EPOCH" Name="EPOCH" SASFieldName="EPOCH" DataType="text" Length="9">
        <Description>
          <TranslatedText xml:lang="en">Epoch</TranslatedText>
        </Description>
        <CodeListRef CodeListOID="CL.EPOCH" />
        <def:Origin Type="Derived" />
      </ItemDef>
      <ItemDef OID="IT.CE.CESTDTC" Name="CESTDTC" SASFieldName="CESTDTC" DataType="date" Length="10">
        <Description>
          <TranslatedText xml:lang="en">Start Date/Time of Clinical Event</TranslatedText>
        </Description>
        <def:Origin Type="Derived" />
      </ItemDef>
      <ItemDef OID="IT.CE.CEENDTC" Name="CEENDTC" SASFieldName="CEENDTC" DataType="date" Length="10">
        <Description>
          <TranslatedText xml:lang="en">End Date/Time of Clinical Event</TranslatedText>
        </Description>
        <def:Origin Type="Derived" />
      </ItemDef>
      <ItemDef OID="IT.CE.CESTDY" Name="CESTDY" SASFieldName="CESTDY" DataType="integer" Length="8">
        <Description>
          <TranslatedText xml:lang="en">Study Day of Start of Event</TranslatedText>
        </Description>
        <def:Origin Type="Derived" />
      </ItemDef>
      <ItemDef OID="IT.CE.CEENDY" Name="CEENDY" SASFieldName="CEENDY" DataType="integer" Length="8">
        <Description>
          <TranslatedText xml:lang="en">Study Day of End of Event</TranslatedText>
        </Description>
        <def:Origin Type="Derived" />
      </ItemDef>
      <ItemDef OID="IT.CE.CETPT" Name="CETPT" SASFieldName="CETPT" DataType="text" Length="20">
        <Description>
          <TranslatedText xml:lang="en">Planned Time Point Name</TranslatedText>
        </Description>
        <def:Origin Type="Assigned" />
      </ItemDef>
      <ItemDef OID="IT.CE.CETPTNUM" Name="CETPTNUM" SASFieldName="CETPTNUM" DataType="integer" Length="8">
        <Description>
          <TranslatedText xml:lang="en">Planned Time Point Number</TranslatedText>
        </Description>
        <def:Origin Type="Assigned" />
      </ItemDef>
      <ItemDef OID="IT.CE.CETPTREF" Name="CETPTREF" SASFieldName="CETPTREF" DataType="text" Length="11">
        <Description>
          <TranslatedText xml:lang="en">Time Point Reference</TranslatedText>
        </Description>
        <def:Origin Type="Assigned" />
      </ItemDef>
      <ItemDef OID="IT.CE.CERFTDTC" Name="CERFTDTC" SASFieldName="CERFTDTC" DataType="datetime" Length="16">
        <Description>
          <TranslatedText xml:lang="en">Date/Time of Reference Time Point</TranslatedText>
        </Description>
        <def:Origin Type="Derived" />
      </ItemDef>
      <ItemDef OID="IT.CE.CEEVINTX" Name="CEEVINTX" SASFieldName="CEEVINTX" DataType="text" Length="35">
        <Description>
          <TranslatedText xml:lang="en">Evaluation Interval Text</TranslatedText>
        </Description>
        <def:Origin Type="Assigned" />
      </ItemDef>
      <ItemDef OID="IT.FA.STUDYID" Name="STUDYID" SASFieldName="STUDYID" DataType="text" Length="7">
        <Description>
          <TranslatedText xml:lang="en">Study Identifier</TranslatedText>
        </Description>
        <def:Origin Type="Assigned" />
      </ItemDef>
      <ItemDef OID="IT.FA.DOMAIN" Name="DOMAIN" SASFieldName="DOMAIN" DataType="text" Length="2">
        <Description>
          <TranslatedText xml:lang="en">Domain Abbreviation</TranslatedText>
        </Description>
        <def:Origin Type="Assigned" />
      </ItemDef>
      <ItemDef OID="IT.FA.USUBJID" Name="USUBJID" SASFieldName="USUBJID" DataType="text" Length="15">
        <Description>
          <TranslatedText xml:lang="en">Unique Subject Identifier</TranslatedText>
        </Description>
        <def:Origin Type="Derived" />
      </ItemDef>
      <ItemDef OID="IT.FA.FASEQ" Name="FASEQ" SASFieldName="FASEQ" DataType="integer" Length="8">
        <Description>
          <TranslatedText xml:lang="en">Sequence Number</TranslatedText>
        </Description>
        <def:Origin Type="Derived" />
      </ItemDef>
      <ItemDef OID="IT.FA.FAGRPID" Name="FAGRPID" SASFieldName="FAGRPID" DataType="text" Length="24" def:CommentOID="COM.FLAT">
        <Description>
          <TranslatedText xml:lang="en">Group ID</TranslatedText>
        </Description>
        <def:Origin Type="Derived" />
      </ItemDef>
      <ItemDef OID="IT.FA.FATESTCD" Name="FATESTCD" SASFieldName="FATESTCD" DataType="text" Length="8">
        <Description>
          <TranslatedText xml:lang="en">Findings About Test Short Name</TranslatedText>
        </Description>
        <CodeListRef CodeListOID="CL.FATESTCD" />
        <def:Origin Type="Derived" />
      </ItemDef>
      <ItemDef OID="IT.FA.FATEST" Name="FATEST" SASFieldName="FATEST" DataType="text" Length="20">
        <Description>
          <TranslatedText xml:lang="en">Findings About Test Name</TranslatedText>
        </Description>
        <CodeListRef CodeListOID="CL.FATEST" />
        <def:Origin Type="Derived" />
      </ItemDef>
      <ItemDef OID="IT.FA.FAOBJ" Name="FAOBJ" SASFieldName="FAOBJ" DataType="text" Length="10">
        <Description>
          <TranslatedText xml:lang="en">Object of the Observation</TranslatedText>
        </Description>
        <def:Origin Type="Derived" />
      </ItemDef>
      <ItemDef OID="IT.FA.FACAT" Name="FACAT" SASFieldName="FACAT" DataType="text" Length="14">
        <Description>
          <TranslatedText xml:lang="en">Category for Findings About</TranslatedText>
        </Description>
        <def:Origin Type="Assigned" />
      </ItemDef>
      <ItemDef OID="IT.FA.FASCAT" Name="FASCAT" SASFieldName="FASCAT" DataType="text" Length="8">
        <Description>
          <TranslatedText xml:lang="en">Subcategory for Findings About</TranslatedText>
        </Description>
        <def:Origin Type="Derived" />
      </ItemDef>
      <ItemDef OID="IT.FA.FAORRES" Name="FAORRES" SASFieldName="FAORRES" DataType="text" Length="8">
        <Description>
          <TranslatedText xml:lang="en">Result or Finding in Original Units</TranslatedText>
        </Description>
        <def:Origin Type="Collected" Source="Investigator" />
        <def:ValueListRef ValueListOID="VL.FA.FAORRES" />
      </ItemDef>
      <ItemDef OID="IT.FA.FAORRESU" Name="FAORRESU" SASFieldName="FAORRESU" DataType="text" Length="2">
        <Description>
          <TranslatedText xml:lang="en">Original Units</TranslatedText>
        </Description>
        <CodeListRef CodeListOID="CL.UNIT" />
        <def:Origin Type="Derived" />
      </ItemDef>
      <ItemDef OID="IT.FA.FASTRESC" Name="FASTRESC" SASFieldName="FASTRESC" DataType="text" Length="8">
        <Description>
          <TranslatedText xml:lang="en">Character Result/Finding in Std Format</TranslatedText>
        </Description>
        <def:Origin Type="Derived" />
      </ItemDef>
      <ItemDef OID="IT.FA.FASTRESN" Name="FASTRESN" SASFieldName="FASTRESN" DataType="float" Length="8">
        <Description>
          <TranslatedText xml:lang="en">Numeric Result/Finding in Standard Units</TranslatedText>
        </Description>
        <def:Origin Type="Derived" />
      </ItemDef>
      <ItemDef OID="IT.FA.FASTRESU" Name="FASTRESU" SASFieldName="FASTRESU" DataType="text" Length="2">
        <Description>
          <TranslatedText xml:lang="en">Standard Units</TranslatedText>
        </Description>
        <CodeListRef CodeListOID="CL.UNIT" />
        <def:Origin Type="Derived" />
      </ItemDef>
      <ItemDef OID="IT.FA.FAEVAL" Name="FAEVAL" SASFieldName="FAEVAL" DataType="text" Length="13">
        <Description>
          <TranslatedText xml:lang="en">Evaluator</TranslatedText>
        </Description>
        <CodeListRef CodeListOID="CL.EVAL" />
        <def:Origin Type="Assigned" />
      </ItemDef>
      <ItemDef OID="IT.FA.EPOCH" Name="EPOCH" SASFieldName="EPOCH" DataType="text" Length="9">
        <Description>
          <TranslatedText xml:lang="en">Epoch</TranslatedText>
        </Description>
        <CodeListRef CodeListOID="CL.EPOCH" />
        <def:Origin Type="Derived" />
      </ItemDef>
      <ItemDef OID="IT.FA.FADTC" Name="FADTC" SASFieldName="FADTC" DataType="date" Length="10">
        <Description>
          <TranslatedText xml:lang="en">Date/Time of Collection</TranslatedText>
        </Description>
        <def:Origin Type="Collected" Source="Investigator" />
      </ItemDef>
      <ItemDef OID="IT.FA.FADY" Name="FADY" SASFieldName="FADY" DataType="integer" Length="8">
        <Description>
          <TranslatedText xml:lang="en">Study Day of Collection</TranslatedText>
        </Description>
        <def:Origin Type="Derived" />
      </ItemDef>
      <ItemDef OID="IT.FA.FATPT" Name="FATPT" SASFieldName="FATPT" DataType="text" Length="20">
        <Description>
          <TranslatedText xml:lang="en">Planned Time Point Name</TranslatedText>
        </Description>
        <def:Origin Type="Derived" />
      </ItemDef>
      <ItemDef OID="IT.FA.FATPTNUM" Name="FATPTNUM" SASFieldName="FATPTNUM" DataType="integer" Length="8">
        <Description>
          <TranslatedText xml:lang="en">Planned Time Point Number</TranslatedText>
        </Description>
        <def:Origin Type="Derived" />
      </ItemDef>
      <ItemDef OID="IT.FA.FATPTREF" Name="FATPTREF" SASFieldName="FATPTREF" DataType="text" Length="11">
        <Description>
          <TranslatedText xml:lang="en">Time Point Reference</TranslatedText>
        </Description>
        <def:Origin Type="Assigned" />
      </ItemDef>
      <ItemDef OID="IT.FA.FARFTDTC" Name="FARFTDTC" SASFieldName="FARFTDTC" DataType="datetime" Length="16">
        <Description>
          <TranslatedText xml:lang="en">Date/Time of Reference Time Point</TranslatedText>
        </Description>
        <def:Origin Type="Derived" />
      </ItemDef>
      <ItemDef OID="IT.AE.STUDYID" Name="STUDYID" SASFieldName="STUDYID" DataType="text" Length="7">
        <Description>
          <TranslatedText xml:lang="en">Study Identifier</TranslatedText>
        </Description>
        <def:Origin Type="Assigned" />
      </ItemDef>
      <ItemDef OID="IT.AE.DOMAIN" Name="DOMAIN" SASFieldName="DOMAIN" DataType="text" Length="2">
        <Description>
          <TranslatedText xml:lang="en">Domain Abbreviation</TranslatedText>
        </Description>
        <def:Origin Type="Assigned" />
      </ItemDef>
      <ItemDef OID="IT.AE.USUBJID" Name="USUBJID" SASFieldName="USUBJID" DataType="text" Length="15">
        <Description>
          <TranslatedText xml:lang="en">Unique Subject Identifier</TranslatedText>
        </Description>
        <def:Origin Type="Derived" />
      </ItemDef>
      <ItemDef OID="IT.AE.AESEQ" Name="AESEQ" SASFieldName="AESEQ" DataType="integer" Length="8">
        <Description>
          <TranslatedText xml:lang="en">Sequence Number</TranslatedText>
        </Description>
        <def:Origin Type="Derived" />
      </ItemDef>
      <ItemDef OID="IT.AE.AETERM" Name="AETERM" SASFieldName="AETERM" DataType="text" Length="32">
        <Description>
          <TranslatedText xml:lang="en">Reported Term for the Adverse Event</TranslatedText>
        </Description>
        <def:Origin Type="Collected" Source="Investigator" />
      </ItemDef>
      <ItemDef OID="IT.AE.AEDECOD" Name="AEDECOD" SASFieldName="AEDECOD" DataType="text" Length="33" def:CommentOID="COM.CODING">
        <Description>
          <TranslatedText xml:lang="en">Dictionary-Derived Term</TranslatedText>
        </Description>
        <def:Origin Type="Derived" />
      </ItemDef>
      <ItemDef OID="IT.AE.AECAT" Name="AECAT" SASFieldName="AECAT" DataType="text" Length="11">
        <Description>
          <TranslatedText xml:lang="en">Category for Adverse Event</TranslatedText>
        </Description>
        <def:Origin Type="Derived" />
      </ItemDef>
      <ItemDef OID="IT.AE.AEBODSYS" Name="AEBODSYS" SASFieldName="AEBODSYS" DataType="text" Length="47" def:CommentOID="COM.CODING">
        <Description>
          <TranslatedText xml:lang="en">Body System or Organ Class</TranslatedText>
        </Description>
        <def:Origin Type="Derived" />
      </ItemDef>
      <ItemDef OID="IT.AE.AESEV" Name="AESEV" SASFieldName="AESEV" DataType="text" Length="8">
        <Description>
          <TranslatedText xml:lang="en">Severity/Intensity</TranslatedText>
        </Description>
        <CodeListRef CodeListOID="CL.AESEV" />
        <def:Origin Type="Collected" Source="Investigator" />
      </ItemDef>
      <ItemDef OID="IT.AE.AESER" Name="AESER" SASFieldName="AESER" DataType="text" Length="1">
        <Description>
          <TranslatedText xml:lang="en">Serious Event</TranslatedText>
        </Description>
        <CodeListRef CodeListOID="CL.NY" />
        <def:Origin Type="Collected" Source="Investigator" />
      </ItemDef>
      <ItemDef OID="IT.AE.AEACN" Name="AEACN" SASFieldName="AEACN" DataType="text" Length="14">
        <Description>
          <TranslatedText xml:lang="en">Action Taken with Study Treatment</TranslatedText>
        </Description>
        <CodeListRef CodeListOID="CL.ACN" />
        <def:Origin Type="Derived" />
      </ItemDef>
      <ItemDef OID="IT.AE.AEREL" Name="AEREL" SASFieldName="AEREL" DataType="text" Length="16">
        <Description>
          <TranslatedText xml:lang="en">Causality</TranslatedText>
        </Description>
        <def:Origin Type="Derived" />
      </ItemDef>
      <ItemDef OID="IT.AE.AEOUT" Name="AEOUT" SASFieldName="AEOUT" DataType="text" Length="20">
        <Description>
          <TranslatedText xml:lang="en">Outcome of Adverse Event</TranslatedText>
        </Description>
        <CodeListRef CodeListOID="CL.OUT" />
        <def:Origin Type="Derived" />
      </ItemDef>
      <ItemDef OID="IT.AE.AESHOSP" Name="AESHOSP" SASFieldName="AESHOSP" DataType="text" Length="1">
        <Description>
          <TranslatedText xml:lang="en">Requires or Prolongs Hospitalization</TranslatedText>
        </Description>
        <CodeListRef CodeListOID="CL.NY" />
        <def:Origin Type="Collected" Source="Investigator" />
      </ItemDef>
      <ItemDef OID="IT.AE.EPOCH" Name="EPOCH" SASFieldName="EPOCH" DataType="text" Length="9">
        <Description>
          <TranslatedText xml:lang="en">Epoch</TranslatedText>
        </Description>
        <CodeListRef CodeListOID="CL.EPOCH" />
        <def:Origin Type="Derived" />
      </ItemDef>
      <ItemDef OID="IT.AE.AESTDTC" Name="AESTDTC" SASFieldName="AESTDTC" DataType="partialDate" Length="10">
        <Description>
          <TranslatedText xml:lang="en">Start Date/Time of Adverse Event</TranslatedText>
        </Description>
        <def:Origin Type="Collected" Source="Investigator" />
      </ItemDef>
      <ItemDef OID="IT.AE.AEENDTC" Name="AEENDTC" SASFieldName="AEENDTC" DataType="partialDate" Length="10">
        <Description>
          <TranslatedText xml:lang="en">End Date/Time of Adverse Event</TranslatedText>
        </Description>
        <def:Origin Type="Collected" Source="Investigator" />
      </ItemDef>
      <ItemDef OID="IT.AE.AESTDY" Name="AESTDY" SASFieldName="AESTDY" DataType="integer" Length="8">
        <Description>
          <TranslatedText xml:lang="en">Study Day of Start of Adverse Event</TranslatedText>
        </Description>
        <def:Origin Type="Derived" />
      </ItemDef>
      <ItemDef OID="IT.AE.AEENDY" Name="AEENDY" SASFieldName="AEENDY" DataType="integer" Length="8">
        <Description>
          <TranslatedText xml:lang="en">Study Day of End of Adverse Event</TranslatedText>
        </Description>
        <def:Origin Type="Derived" />
      </ItemDef>
      <ItemDef OID="IT.AE.AEENRTPT" Name="AEENRTPT" SASFieldName="AEENRTPT" DataType="text" Length="7">
        <Description>
          <TranslatedText xml:lang="en">End Relative to Reference Time Point</TranslatedText>
        </Description>
        <def:Origin Type="Derived" />
      </ItemDef>
      <ItemDef OID="IT.AE.AEENTPT" Name="AEENTPT" SASFieldName="AEENTPT" DataType="date" Length="10">
        <Description>
          <TranslatedText xml:lang="en">End Reference Time Point</TranslatedText>
        </Description>
        <def:Origin Type="Derived" />
      </ItemDef>
      <ItemDef OID="IT.IS.STUDYID" Name="STUDYID" SASFieldName="STUDYID" DataType="text" Length="7">
        <Description>
          <TranslatedText xml:lang="en">Study Identifier</TranslatedText>
        </Description>
        <def:Origin Type="Assigned" />
      </ItemDef>
      <ItemDef OID="IT.IS.DOMAIN" Name="DOMAIN" SASFieldName="DOMAIN" DataType="text" Length="2">
        <Description>
          <TranslatedText xml:lang="en">Domain Abbreviation</TranslatedText>
        </Description>
        <def:Origin Type="Assigned" />
      </ItemDef>
      <ItemDef OID="IT.IS.USUBJID" Name="USUBJID" SASFieldName="USUBJID" DataType="text" Length="15">
        <Description>
          <TranslatedText xml:lang="en">Unique Subject Identifier</TranslatedText>
        </Description>
        <def:Origin Type="Derived" />
      </ItemDef>
      <ItemDef OID="IT.IS.ISSEQ" Name="ISSEQ" SASFieldName="ISSEQ" DataType="integer" Length="8">
        <Description>
          <TranslatedText xml:lang="en">Sequence Number</TranslatedText>
        </Description>
        <def:Origin Type="Derived" />
      </ItemDef>
      <ItemDef OID="IT.IS.ISTESTCD" Name="ISTESTCD" SASFieldName="ISTESTCD" DataType="text" Length="5" def:CommentOID="COM.ISTEST">
        <Description>
          <TranslatedText xml:lang="en">Immunogenicity Test/Exam Short Name</TranslatedText>
        </Description>
        <CodeListRef CodeListOID="CL.ISTESTCD" />
        <def:Origin Type="Assigned" />
      </ItemDef>
      <ItemDef OID="IT.IS.ISTEST" Name="ISTEST" SASFieldName="ISTEST" DataType="text" Length="37" def:CommentOID="COM.ISTEST">
        <Description>
          <TranslatedText xml:lang="en">Immunogenicity Test or Examination Name</TranslatedText>
        </Description>
        <CodeListRef CodeListOID="CL.ISTEST" />
        <def:Origin Type="Assigned" />
      </ItemDef>
      <ItemDef OID="IT.IS.ISBDAGNT" Name="ISBDAGNT" SASFieldName="ISBDAGNT" DataType="text" Length="8">
        <Description>
          <TranslatedText xml:lang="en">Binding Agent</TranslatedText>
        </Description>
        <def:Origin Type="Derived" />
      </ItemDef>
      <ItemDef OID="IT.IS.ISCAT" Name="ISCAT" SASFieldName="ISCAT" DataType="text" Length="14">
        <Description>
          <TranslatedText xml:lang="en">Category for Immunogenicity Test</TranslatedText>
        </Description>
        <def:Origin Type="Assigned" />
      </ItemDef>
      <ItemDef OID="IT.IS.ISORRES" Name="ISORRES" SASFieldName="ISORRES" DataType="text" Length="4">
        <Description>
          <TranslatedText xml:lang="en">Results or Findings in Original Units</TranslatedText>
        </Description>
        <def:Origin Type="Collected" Source="Investigator" />
        <def:ValueListRef ValueListOID="VL.IS.ISORRES" />
      </ItemDef>
      <ItemDef OID="IT.IS.ISORRESU" Name="ISORRESU" SASFieldName="ISORRESU" DataType="text" Length="5">
        <Description>
          <TranslatedText xml:lang="en">Original Units</TranslatedText>
        </Description>
        <CodeListRef CodeListOID="CL.UNIT" />
        <def:Origin Type="Collected" Source="Investigator" />
      </ItemDef>
      <ItemDef OID="IT.IS.ISSTRESC" Name="ISSTRESC" SASFieldName="ISSTRESC" DataType="text" Length="4">
        <Description>
          <TranslatedText xml:lang="en">Character Result/Finding in Std Format</TranslatedText>
        </Description>
        <def:Origin Type="Derived" />
      </ItemDef>
      <ItemDef OID="IT.IS.ISSTRESN" Name="ISSTRESN" SASFieldName="ISSTRESN" DataType="float" Length="8">
        <Description>
          <TranslatedText xml:lang="en">Numeric Results/Findings in Std. Units</TranslatedText>
        </Description>
        <def:Origin Type="Derived" />
      </ItemDef>
      <ItemDef OID="IT.IS.ISSTRESU" Name="ISSTRESU" SASFieldName="ISSTRESU" DataType="text" Length="5">
        <Description>
          <TranslatedText xml:lang="en">Standard Units</TranslatedText>
        </Description>
        <CodeListRef CodeListOID="CL.UNIT" />
        <def:Origin Type="Derived" />
      </ItemDef>
      <ItemDef OID="IT.IS.ISSTAT" Name="ISSTAT" SASFieldName="ISSTAT" DataType="text" Length="8">
        <Description>
          <TranslatedText xml:lang="en">Completion Status</TranslatedText>
        </Description>
        <CodeListRef CodeListOID="CL.ND" />
        <def:Origin Type="Derived" />
      </ItemDef>
      <ItemDef OID="IT.IS.ISREASND" Name="ISREASND" SASFieldName="ISREASND" DataType="text" Length="19">
        <Description>
          <TranslatedText xml:lang="en">Reason Not Done</TranslatedText>
        </Description>
        <def:Origin Type="Derived" />
      </ItemDef>
      <ItemDef OID="IT.IS.ISSPEC" Name="ISSPEC" SASFieldName="ISSPEC" DataType="text" Length="5">
        <Description>
          <TranslatedText xml:lang="en">Specimen Type</TranslatedText>
        </Description>
        <CodeListRef CodeListOID="CL.SPECTYPE" />
        <def:Origin Type="Assigned" />
      </ItemDef>
      <ItemDef OID="IT.IS.ISMETHOD" Name="ISMETHOD" SASFieldName="ISMETHOD" DataType="text" Length="33">
        <Description>
          <TranslatedText xml:lang="en">Method of Test or Examination</TranslatedText>
        </Description>
        <CodeListRef CodeListOID="CL.METHOD" />
        <def:Origin Type="Assigned" />
      </ItemDef>
      <ItemDef OID="IT.IS.ISLOBXFL" Name="ISLOBXFL" SASFieldName="ISLOBXFL" DataType="text" Length="1">
        <Description>
          <TranslatedText xml:lang="en">Last Observation Before Exposure Flag</TranslatedText>
        </Description>
        <CodeListRef CodeListOID="CL.NY" />
        <def:Origin Type="Derived" />
      </ItemDef>
      <ItemDef OID="IT.IS.ISLLOQ" Name="ISLLOQ" SASFieldName="ISLLOQ" DataType="float" Length="8">
        <Description>
          <TranslatedText xml:lang="en">Lower Limit of Quantitation</TranslatedText>
        </Description>
        <def:Origin Type="Assigned" />
      </ItemDef>
      <ItemDef OID="IT.IS.VISITNUM" Name="VISITNUM" SASFieldName="VISITNUM" DataType="float" Length="8">
        <Description>
          <TranslatedText xml:lang="en">Visit Number</TranslatedText>
        </Description>
        <def:Origin Type="Derived" />
      </ItemDef>
      <ItemDef OID="IT.IS.VISIT" Name="VISIT" SASFieldName="VISIT" DataType="text" Length="6">
        <Description>
          <TranslatedText xml:lang="en">Visit Name</TranslatedText>
        </Description>
        <def:Origin Type="Derived" />
      </ItemDef>
      <ItemDef OID="IT.IS.EPOCH" Name="EPOCH" SASFieldName="EPOCH" DataType="text" Length="9">
        <Description>
          <TranslatedText xml:lang="en">Epoch</TranslatedText>
        </Description>
        <CodeListRef CodeListOID="CL.EPOCH" />
        <def:Origin Type="Derived" />
      </ItemDef>
      <ItemDef OID="IT.IS.ISDTC" Name="ISDTC" SASFieldName="ISDTC" DataType="date" Length="10">
        <Description>
          <TranslatedText xml:lang="en">Date/Time of Collection</TranslatedText>
        </Description>
        <def:Origin Type="Collected" Source="Investigator" />
      </ItemDef>
      <ItemDef OID="IT.IS.ISDY" Name="ISDY" SASFieldName="ISDY" DataType="integer" Length="8">
        <Description>
          <TranslatedText xml:lang="en">Study Day of Visit/Collection/Exam</TranslatedText>
        </Description>
        <def:Origin Type="Derived" />
      </ItemDef>
      <ItemDef OID="IT.TA.STUDYID" Name="STUDYID" SASFieldName="STUDYID" DataType="text" Length="7">
        <Description>
          <TranslatedText xml:lang="en">Study Identifier</TranslatedText>
        </Description>
        <def:Origin Type="Assigned" />
      </ItemDef>
      <ItemDef OID="IT.TA.DOMAIN" Name="DOMAIN" SASFieldName="DOMAIN" DataType="text" Length="2">
        <Description>
          <TranslatedText xml:lang="en">Domain Abbreviation</TranslatedText>
        </Description>
        <def:Origin Type="Assigned" />
      </ItemDef>
      <ItemDef OID="IT.TA.ARMCD" Name="ARMCD" SASFieldName="ARMCD" DataType="text" Length="4">
        <Description>
          <TranslatedText xml:lang="en">Planned Arm Code</TranslatedText>
        </Description>
        <def:Origin Type="Assigned" />
      </ItemDef>
      <ItemDef OID="IT.TA.ARM" Name="ARM" SASFieldName="ARM" DataType="text" Length="15">
        <Description>
          <TranslatedText xml:lang="en">Description of Planned Arm</TranslatedText>
        </Description>
        <def:Origin Type="Assigned" />
      </ItemDef>
      <ItemDef OID="IT.TA.TAETORD" Name="TAETORD" SASFieldName="TAETORD" DataType="integer" Length="8">
        <Description>
          <TranslatedText xml:lang="en">Planned Order of Element within Arm</TranslatedText>
        </Description>
        <def:Origin Type="Assigned" />
      </ItemDef>
      <ItemDef OID="IT.TA.ETCD" Name="ETCD" SASFieldName="ETCD" DataType="text" Length="4">
        <Description>
          <TranslatedText xml:lang="en">Element Code</TranslatedText>
        </Description>
        <def:Origin Type="Assigned" />
      </ItemDef>
      <ItemDef OID="IT.TA.ELEMENT" Name="ELEMENT" SASFieldName="ELEMENT" DataType="text" Length="20">
        <Description>
          <TranslatedText xml:lang="en">Description of Element</TranslatedText>
        </Description>
        <def:Origin Type="Assigned" />
      </ItemDef>
      <ItemDef OID="IT.TA.TABRANCH" Name="TABRANCH" SASFieldName="TABRANCH" DataType="text" Length="1">
        <Description>
          <TranslatedText xml:lang="en">Branch</TranslatedText>
        </Description>
        <def:Origin Type="Assigned" />
      </ItemDef>
      <ItemDef OID="IT.TA.TATRANS" Name="TATRANS" SASFieldName="TATRANS" DataType="text" Length="1">
        <Description>
          <TranslatedText xml:lang="en">Transition Rule</TranslatedText>
        </Description>
        <def:Origin Type="Assigned" />
      </ItemDef>
      <ItemDef OID="IT.TA.EPOCH" Name="EPOCH" SASFieldName="EPOCH" DataType="text" Length="9">
        <Description>
          <TranslatedText xml:lang="en">Epoch</TranslatedText>
        </Description>
        <def:Origin Type="Assigned" />
      </ItemDef>
      <ItemDef OID="IT.TE.STUDYID" Name="STUDYID" SASFieldName="STUDYID" DataType="text" Length="7">
        <Description>
          <TranslatedText xml:lang="en">Study Identifier</TranslatedText>
        </Description>
        <def:Origin Type="Assigned" />
      </ItemDef>
      <ItemDef OID="IT.TE.DOMAIN" Name="DOMAIN" SASFieldName="DOMAIN" DataType="text" Length="2">
        <Description>
          <TranslatedText xml:lang="en">Domain Abbreviation</TranslatedText>
        </Description>
        <def:Origin Type="Assigned" />
      </ItemDef>
      <ItemDef OID="IT.TE.ETCD" Name="ETCD" SASFieldName="ETCD" DataType="text" Length="4">
        <Description>
          <TranslatedText xml:lang="en">Element Code</TranslatedText>
        </Description>
        <def:Origin Type="Assigned" />
      </ItemDef>
      <ItemDef OID="IT.TE.ELEMENT" Name="ELEMENT" SASFieldName="ELEMENT" DataType="text" Length="20">
        <Description>
          <TranslatedText xml:lang="en">Description of Element</TranslatedText>
        </Description>
        <def:Origin Type="Assigned" />
      </ItemDef>
      <ItemDef OID="IT.TE.TESTRL" Name="TESTRL" SASFieldName="TESTRL" DataType="text" Length="25">
        <Description>
          <TranslatedText xml:lang="en">Rule for Start of Element</TranslatedText>
        </Description>
        <def:Origin Type="Assigned" />
      </ItemDef>
      <ItemDef OID="IT.TE.TEENRL" Name="TEENRL" SASFieldName="TEENRL" DataType="text" Length="13">
        <Description>
          <TranslatedText xml:lang="en">Rule for End of Element</TranslatedText>
        </Description>
        <def:Origin Type="Assigned" />
      </ItemDef>
      <ItemDef OID="IT.TE.TEDUR" Name="TEDUR" SASFieldName="TEDUR" DataType="text" Length="4">
        <Description>
          <TranslatedText xml:lang="en">Planned Duration of Element</TranslatedText>
        </Description>
        <def:Origin Type="Assigned" />
      </ItemDef>
      <ItemDef OID="IT.TV.STUDYID" Name="STUDYID" SASFieldName="STUDYID" DataType="text" Length="7">
        <Description>
          <TranslatedText xml:lang="en">Study Identifier</TranslatedText>
        </Description>
        <def:Origin Type="Assigned" />
      </ItemDef>
      <ItemDef OID="IT.TV.DOMAIN" Name="DOMAIN" SASFieldName="DOMAIN" DataType="text" Length="2">
        <Description>
          <TranslatedText xml:lang="en">Domain Abbreviation</TranslatedText>
        </Description>
        <def:Origin Type="Assigned" />
      </ItemDef>
      <ItemDef OID="IT.TV.VISITNUM" Name="VISITNUM" SASFieldName="VISITNUM" DataType="float" Length="8">
        <Description>
          <TranslatedText xml:lang="en">Visit Number</TranslatedText>
        </Description>
        <def:Origin Type="Assigned" />
      </ItemDef>
      <ItemDef OID="IT.TV.VISIT" Name="VISIT" SASFieldName="VISIT" DataType="text" Length="9">
        <Description>
          <TranslatedText xml:lang="en">Visit Name</TranslatedText>
        </Description>
        <def:Origin Type="Assigned" />
      </ItemDef>
      <ItemDef OID="IT.TV.VISITDY" Name="VISITDY" SASFieldName="VISITDY" DataType="integer" Length="8">
        <Description>
          <TranslatedText xml:lang="en">Planned Study Day of Visit</TranslatedText>
        </Description>
        <def:Origin Type="Assigned" />
      </ItemDef>
      <ItemDef OID="IT.TV.ARMCD" Name="ARMCD" SASFieldName="ARMCD" DataType="text" Length="4">
        <Description>
          <TranslatedText xml:lang="en">Planned Arm Code</TranslatedText>
        </Description>
        <def:Origin Type="Assigned" />
      </ItemDef>
      <ItemDef OID="IT.TV.ARM" Name="ARM" SASFieldName="ARM" DataType="text" Length="15">
        <Description>
          <TranslatedText xml:lang="en">Description of Planned Arm</TranslatedText>
        </Description>
        <def:Origin Type="Assigned" />
      </ItemDef>
      <ItemDef OID="IT.TV.TVSTRL" Name="TVSTRL" SASFieldName="TVSTRL" DataType="text" Length="36">
        <Description>
          <TranslatedText xml:lang="en">Visit Start Rule</TranslatedText>
        </Description>
        <def:Origin Type="Assigned" />
      </ItemDef>
      <ItemDef OID="IT.TV.TVENRL" Name="TVENRL" SASFieldName="TVENRL" DataType="text" Length="1">
        <Description>
          <TranslatedText xml:lang="en">Visit End Rule</TranslatedText>
        </Description>
        <def:Origin Type="Assigned" />
      </ItemDef>
      <ItemDef OID="IT.TI.STUDYID" Name="STUDYID" SASFieldName="STUDYID" DataType="text" Length="7">
        <Description>
          <TranslatedText xml:lang="en">Study Identifier</TranslatedText>
        </Description>
        <def:Origin Type="Assigned" />
      </ItemDef>
      <ItemDef OID="IT.TI.DOMAIN" Name="DOMAIN" SASFieldName="DOMAIN" DataType="text" Length="2">
        <Description>
          <TranslatedText xml:lang="en">Domain Abbreviation</TranslatedText>
        </Description>
        <def:Origin Type="Assigned" />
      </ItemDef>
      <ItemDef OID="IT.TI.IETESTCD" Name="IETESTCD" SASFieldName="IETESTCD" DataType="text" Length="6">
        <Description>
          <TranslatedText xml:lang="en">Incl/Excl Criterion Short Name</TranslatedText>
        </Description>
        <def:Origin Type="Assigned" />
      </ItemDef>
      <ItemDef OID="IT.TI.IETEST" Name="IETEST" SASFieldName="IETEST" DataType="text" Length="68">
        <Description>
          <TranslatedText xml:lang="en">Inclusion/Exclusion Criterion</TranslatedText>
        </Description>
        <def:Origin Type="Assigned" />
      </ItemDef>
      <ItemDef OID="IT.TI.IECAT" Name="IECAT" SASFieldName="IECAT" DataType="text" Length="9">
        <Description>
          <TranslatedText xml:lang="en">Inclusion/Exclusion Category</TranslatedText>
        </Description>
        <def:Origin Type="Assigned" />
      </ItemDef>
      <ItemDef OID="IT.TI.TIVERS" Name="TIVERS" SASFieldName="TIVERS" DataType="text" Length="1">
        <Description>
          <TranslatedText xml:lang="en">Protocol Criteria Versions</TranslatedText>
        </Description>
        <def:Origin Type="Assigned" />
      </ItemDef>
      <ItemDef OID="IT.TS.STUDYID" Name="STUDYID" SASFieldName="STUDYID" DataType="text" Length="7">
        <Description>
          <TranslatedText xml:lang="en">Study Identifier</TranslatedText>
        </Description>
        <def:Origin Type="Assigned" />
      </ItemDef>
      <ItemDef OID="IT.TS.DOMAIN" Name="DOMAIN" SASFieldName="DOMAIN" DataType="text" Length="2">
        <Description>
          <TranslatedText xml:lang="en">Domain Abbreviation</TranslatedText>
        </Description>
        <def:Origin Type="Assigned" />
      </ItemDef>
      <ItemDef OID="IT.TS.TSSEQ" Name="TSSEQ" SASFieldName="TSSEQ" DataType="integer" Length="8">
        <Description>
          <TranslatedText xml:lang="en">Sequence Number</TranslatedText>
        </Description>
        <def:Origin Type="Assigned" />
      </ItemDef>
      <ItemDef OID="IT.TS.TSPARMCD" Name="TSPARMCD" SASFieldName="TSPARMCD" DataType="text" Length="8">
        <Description>
          <TranslatedText xml:lang="en">Trial Summary Parameter Short Name</TranslatedText>
        </Description>
        <CodeListRef CodeListOID="CL.TSPARMCD" />
        <def:Origin Type="Assigned" />
      </ItemDef>
      <ItemDef OID="IT.TS.TSPARM" Name="TSPARM" SASFieldName="TSPARM" DataType="text" Length="36">
        <Description>
          <TranslatedText xml:lang="en">Trial Summary Parameter</TranslatedText>
        </Description>
        <def:Origin Type="Assigned" />
      </ItemDef>
      <ItemDef OID="IT.TS.TSVAL" Name="TSVAL" SASFieldName="TSVAL" DataType="text" Length="57">
        <Description>
          <TranslatedText xml:lang="en">Parameter Value</TranslatedText>
        </Description>
        <def:Origin Type="Assigned" />
      </ItemDef>
      <ItemDef OID="IT.TS.TSVALNF" Name="TSVALNF" SASFieldName="TSVALNF" DataType="text" Length="1">
        <Description>
          <TranslatedText xml:lang="en">Parameter Value Null Flavor</TranslatedText>
        </Description>
        <def:Origin Type="Assigned" />
      </ItemDef>
      <ItemDef OID="IT.TS.TSVALCD" Name="TSVALCD" SASFieldName="TSVALCD" DataType="text" Length="7">
        <Description>
          <TranslatedText xml:lang="en">Parameter Value Code</TranslatedText>
        </Description>
        <def:Origin Type="Assigned" />
      </ItemDef>
      <ItemDef OID="IT.TS.TSVCDREF" Name="TSVCDREF" SASFieldName="TSVCDREF" DataType="text" Length="8">
        <Description>
          <TranslatedText xml:lang="en">Name of the Reference Terminology</TranslatedText>
        </Description>
        <def:Origin Type="Assigned" />
      </ItemDef>
      <ItemDef OID="IT.TS.TSVCDVER" Name="TSVCDVER" SASFieldName="TSVCDVER" DataType="text" Length="10">
        <Description>
          <TranslatedText xml:lang="en">Version of the Reference Terminology</TranslatedText>
        </Description>
        <def:Origin Type="Assigned" />
      </ItemDef>
      <ItemDef OID="IT.VS.VSORRES.VSTESTCD.SYSBP.DIABP.PULSE.TEMP" Name="VSORRES.VSTESTCD.SYSBP.DIABP.PULSE.TEMP" SASFieldName="VSORRES.VSTESTCD.SYSBP.DIABP.PULSE.TEMP" DataType="text" Length="4">
        <Description>
          <TranslatedText xml:lang="en">Result or Finding in Original Units</TranslatedText>
        </Description>
        <def:Origin Type="Collected" Source="Investigator" />
      </ItemDef>
      <ItemDef OID="IT.VS.VSORRESU.VSTESTCD.TEMP" Name="VSORRESU.VSTESTCD.TEMP" SASFieldName="VSORRESU.VSTESTCD.TEMP" DataType="text" Length="9">
        <Description>
          <TranslatedText xml:lang="en">Original Units</TranslatedText>
        </Description>
        <CodeListRef CodeListOID="CL.VSRESU" />
        <def:Origin Type="Collected" Source="Investigator" />
      </ItemDef>
      <ItemDef OID="IT.VS.VSORRESU.VSTESTCD.SYSBP" Name="VSORRESU.VSTESTCD.SYSBP" SASFieldName="VSORRESU.VSTESTCD.SYSBP" DataType="text" Length="9">
        <Description>
          <TranslatedText xml:lang="en">Original Units</TranslatedText>
        </Description>
        <CodeListRef CodeListOID="CL.VSRESU" />
        <def:Origin Type="Collected" Source="Investigator" />
      </ItemDef>
      <ItemDef OID="IT.VS.VSORRESU.VSTESTCD.PULSE" Name="VSORRESU.VSTESTCD.PULSE" SASFieldName="VSORRESU.VSTESTCD.PULSE" DataType="text" Length="9">
        <Description>
          <TranslatedText xml:lang="en">Original Units</TranslatedText>
        </Description>
        <CodeListRef CodeListOID="CL.VSRESU" />
        <def:Origin Type="Collected" Source="Investigator" />
      </ItemDef>
      <ItemDef OID="IT.VS.VSSTRESN.VSTESTCD.TEMP" Name="VSSTRESN.VSTESTCD.TEMP" SASFieldName="VSSTRESN.VSTESTCD.TEMP" DataType="float" Length="8">
        <Description>
          <TranslatedText xml:lang="en">Numeric Result/Finding in Standard Units</TranslatedText>
        </Description>
        <def:Origin Type="Derived" />
      </ItemDef>
      <ItemDef OID="IT.FA.FAORRES.FATESTCD.OCCUR" Name="FAORRES.FATESTCD.OCCUR" SASFieldName="FAORRES.FATESTCD.OCCUR" DataType="text" Length="8">
        <Description>
          <TranslatedText xml:lang="en">Result or Finding in Original Units</TranslatedText>
        </Description>
        <CodeListRef CodeListOID="CL.NY" />
        <def:Origin Type="Derived" />
      </ItemDef>
      <ItemDef OID="IT.FA.FAORRES.FATESTCD.SEV" Name="FAORRES.FATESTCD.SEV" SASFieldName="FAORRES.FATESTCD.SEV" DataType="text" Length="8">
        <Description>
          <TranslatedText xml:lang="en">Result or Finding in Original Units</TranslatedText>
        </Description>
        <CodeListRef CodeListOID="CL.AESEV" />
        <def:Origin Type="Collected" Source="Investigator" />
      </ItemDef>
      <ItemDef OID="IT.FA.FAORRES.FATESTCD.DIAMETER" Name="FAORRES.FATESTCD.DIAMETER" SASFieldName="FAORRES.FATESTCD.DIAMETER" DataType="float" Length="8">
        <Description>
          <TranslatedText xml:lang="en">Result or Finding in Original Units</TranslatedText>
        </Description>
        <def:Origin Type="Collected" Source="Investigator" />
      </ItemDef>
      <ItemDef OID="IT.IS.ISORRES.ISSTAT.NOT_DONE" Name="ISORRES.ISSTAT.NOT_DONE" SASFieldName="ISORRES.ISSTAT.NOT_DONE" DataType="text" Length="4">
        <Description>
          <TranslatedText xml:lang="en">Results or Findings in Original Units</TranslatedText>
        </Description>
        <def:Origin Type="Collected" Source="Investigator" />
      </ItemDef>
      <ItemDef OID="IT.DS.DSDECOD.DSCAT.DISPOSITION_EVENT" Name="DSDECOD.DSCAT.DISPOSITION_EVENT" SASFieldName="DSDECOD.DSCAT.DISPOSITION_EVENT" DataType="text" Length="25">
        <Description>
          <TranslatedText xml:lang="en">Standardized Disposition Term</TranslatedText>
        </Description>
        <CodeListRef CodeListOID="CL.DSDECOD" />
        <def:Origin Type="Derived" />
      </ItemDef>
      <ItemDef OID="IT.DS.DSDECOD.DSCAT.PROTOCOL_MILESTONE" Name="DSDECOD.DSCAT.PROTOCOL_MILESTONE" SASFieldName="DSDECOD.DSCAT.PROTOCOL_MILESTONE" DataType="text" Length="25">
        <Description>
          <TranslatedText xml:lang="en">Standardized Disposition Term</TranslatedText>
        </Description>
        <CodeListRef CodeListOID="CL.PROTMLST" />
        <def:Origin Type="Derived" />
      </ItemDef>
      <CodeList OID="CL.NY" Name="No Yes Response" DataType="text" def:StandardOID="STD.CT.SDTM">
        <CodeListItem CodedValue="N">
          <Decode>
            <TranslatedText xml:lang="en">No</TranslatedText>
          </Decode>
          <Alias Context="nci:ExtCodeID" Name="C49487" />
        </CodeListItem>
        <CodeListItem CodedValue="Y">
          <Decode>
            <TranslatedText xml:lang="en">Yes</TranslatedText>
          </Decode>
          <Alias Context="nci:ExtCodeID" Name="C49488" />
        </CodeListItem>
        <Alias Context="nci:ExtCodeID" Name="C66742" />
      </CodeList>
      <CodeList OID="CL.AGEU" Name="Age Unit" DataType="text" def:StandardOID="STD.CT.SDTM">
        <EnumeratedItem CodedValue="YEARS">
          <Alias Context="nci:ExtCodeID" Name="C29848" />
        </EnumeratedItem>
        <Alias Context="nci:ExtCodeID" Name="C66781" />
      </CodeList>
      <CodeList OID="CL.SEX" Name="Sex" DataType="text" def:StandardOID="STD.CT.SDTM">
        <EnumeratedItem CodedValue="F">
          <Alias Context="nci:ExtCodeID" Name="C16576" />
        </EnumeratedItem>
        <EnumeratedItem CodedValue="M">
          <Alias Context="nci:ExtCodeID" Name="C20197" />
        </EnumeratedItem>
        <Alias Context="nci:ExtCodeID" Name="C66731" />
      </CodeList>
      <CodeList OID="CL.ARMNULRS" Name="Arm Null Reason" DataType="text" def:StandardOID="STD.CT.SDTM">
        <EnumeratedItem CodedValue="SCREEN FAILURE">
          <Alias Context="nci:ExtCodeID" Name="C49628" />
        </EnumeratedItem>
        <EnumeratedItem CodedValue="ASSIGNED, NOT TREATED">
          <Alias Context="nci:ExtCodeID" Name="C142238" />
        </EnumeratedItem>
        <Alias Context="nci:ExtCodeID" Name="C142179" />
      </CodeList>
      <CodeList OID="CL.DSCAT" Name="Category of Disposition Event" DataType="text" def:StandardOID="STD.CT.SDTM">
        <EnumeratedItem CodedValue="DISPOSITION EVENT">
          <Alias Context="nci:ExtCodeID" Name="C74590" />
        </EnumeratedItem>
        <EnumeratedItem CodedValue="PROTOCOL MILESTONE">
          <Alias Context="nci:ExtCodeID" Name="C74588" />
        </EnumeratedItem>
        <Alias Context="nci:ExtCodeID" Name="C74558" />
      </CodeList>
      <CodeList OID="CL.DSDECOD" Name="Completion/Reason for Non-Completion" DataType="text" def:StandardOID="STD.CT.SDTM">
        <EnumeratedItem CodedValue="COMPLETED">
          <Alias Context="nci:ExtCodeID" Name="C25250" />
        </EnumeratedItem>
        <EnumeratedItem CodedValue="LOST TO FOLLOW-UP">
          <Alias Context="nci:ExtCodeID" Name="C48227" />
        </EnumeratedItem>
        <EnumeratedItem CodedValue="SCREEN FAILURE">
          <Alias Context="nci:ExtCodeID" Name="C49628" />
        </EnumeratedItem>
        <EnumeratedItem CodedValue="WITHDRAWAL BY SUBJECT">
          <Alias Context="nci:ExtCodeID" Name="C49634" />
        </EnumeratedItem>
        <Alias Context="nci:ExtCodeID" Name="C66727" />
      </CodeList>
      <CodeList OID="CL.PROTMLST" Name="Protocol Milestone" DataType="text" def:StandardOID="STD.CT.SDTM">
        <EnumeratedItem CodedValue="INFORMED CONSENT OBTAINED">
          <Alias Context="nci:ExtCodeID" Name="C16735" />
        </EnumeratedItem>
        <EnumeratedItem CodedValue="RANDOMIZED">
          <Alias Context="nci:ExtCodeID" Name="C114209" />
        </EnumeratedItem>
        <Alias Context="nci:ExtCodeID" Name="C114118" />
      </CodeList>
      <CodeList OID="CL.EPOCH" Name="Epoch" DataType="text" def:StandardOID="STD.CT.SDTM">
        <EnumeratedItem CodedValue="SCREENING">
          <Alias Context="nci:ExtCodeID" Name="C202487" />
        </EnumeratedItem>
        <EnumeratedItem CodedValue="TREATMENT">
          <Alias Context="nci:ExtCodeID" Name="C101526" />
        </EnumeratedItem>
        <EnumeratedItem CodedValue="FOLLOW-UP">
          <Alias Context="nci:ExtCodeID" Name="C202578" />
        </EnumeratedItem>
        <Alias Context="nci:ExtCodeID" Name="C99079" />
      </CodeList>
      <CodeList OID="CL.UNIT" Name="Unit" DataType="text" def:StandardOID="STD.CT.SDTM">
        <EnumeratedItem CodedValue="mL">
          <Alias Context="nci:ExtCodeID" Name="C28254" />
        </EnumeratedItem>
        <EnumeratedItem CodedValue="mm">
          <Alias Context="nci:ExtCodeID" Name="C28251" />
        </EnumeratedItem>
        <EnumeratedItem CodedValue="titer">
          <Alias Context="nci:ExtCodeID" Name="C67454" />
        </EnumeratedItem>
        <Alias Context="nci:ExtCodeID" Name="C71620" />
      </CodeList>
      <CodeList OID="CL.VSRESU" Name="Units for Vital Signs Results" DataType="text" def:StandardOID="STD.CT.SDTM">
        <EnumeratedItem CodedValue="C">
          <Alias Context="nci:ExtCodeID" Name="C42559" />
        </EnumeratedItem>
        <EnumeratedItem CodedValue="F">
          <Alias Context="nci:ExtCodeID" Name="C44277" />
        </EnumeratedItem>
        <EnumeratedItem CodedValue="mmHg">
          <Alias Context="nci:ExtCodeID" Name="C49670" />
        </EnumeratedItem>
        <EnumeratedItem CodedValue="beats/min">
          <Alias Context="nci:ExtCodeID" Name="C49673" />
        </EnumeratedItem>
        <Alias Context="nci:ExtCodeID" Name="C66770" />
      </CodeList>
      <CodeList OID="CL.FRM" Name="Dosage Form" DataType="text" def:StandardOID="STD.CT.SDTM">
        <EnumeratedItem CodedValue="INJECTION">
          <Alias Context="nci:ExtCodeID" Name="C42946" />
        </EnumeratedItem>
        <Alias Context="nci:ExtCodeID" Name="C66726" />
      </CodeList>
      <CodeList OID="CL.FREQ" Name="Frequency" DataType="text" def:StandardOID="STD.CT.SDTM">
        <EnumeratedItem CodedValue="ONCE">
          <Alias Context="nci:ExtCodeID" Name="C64576" />
        </EnumeratedItem>
        <Alias Context="nci:ExtCodeID" Name="C71113" />
      </CodeList>
      <CodeList OID="CL.ROUTE" Name="Route of Administration Response" DataType="text" def:StandardOID="STD.CT.SDTM">
        <EnumeratedItem CodedValue="INTRAMUSCULAR">
          <Alias Context="nci:ExtCodeID" Name="C28161" />
        </EnumeratedItem>
        <Alias Context="nci:ExtCodeID" Name="C66729" />
      </CodeList>
      <CodeList OID="CL.LOC" Name="Anatomical Location" DataType="text" def:StandardOID="STD.CT.SDTM">
        <EnumeratedItem CodedValue="DELTOID MUSCLE">
          <Alias Context="nci:ExtCodeID" Name="C32446" />
        </EnumeratedItem>
        <Alias Context="nci:ExtCodeID" Name="C74456" />
      </CodeList>
      <CodeList OID="CL.LAT" Name="Laterality" DataType="text" def:StandardOID="STD.CT.SDTM">
        <EnumeratedItem CodedValue="LEFT">
          <Alias Context="nci:ExtCodeID" Name="C25229" />
        </EnumeratedItem>
        <EnumeratedItem CodedValue="RIGHT">
          <Alias Context="nci:ExtCodeID" Name="C25228" />
        </EnumeratedItem>
        <Alias Context="nci:ExtCodeID" Name="C99073" />
      </CodeList>
      <CodeList OID="CL.EVAL" Name="Evaluator" DataType="text" def:StandardOID="STD.CT.SDTM">
        <EnumeratedItem CodedValue="STUDY SUBJECT">
          <Alias Context="nci:ExtCodeID" Name="C41189" />
        </EnumeratedItem>
        <Alias Context="nci:ExtCodeID" Name="C78735" />
      </CodeList>
      <CodeList OID="CL.VSTESTCD" Name="Vital Signs Test Code" DataType="text" def:StandardOID="STD.CT.SDTM">
        <EnumeratedItem CodedValue="DIABP">
          <Alias Context="nci:ExtCodeID" Name="C25299" />
        </EnumeratedItem>
        <EnumeratedItem CodedValue="PULSE">
          <Alias Context="nci:ExtCodeID" Name="C49676" />
        </EnumeratedItem>
        <EnumeratedItem CodedValue="SYSBP">
          <Alias Context="nci:ExtCodeID" Name="C25298" />
        </EnumeratedItem>
        <EnumeratedItem CodedValue="TEMP">
          <Alias Context="nci:ExtCodeID" Name="C174446" />
        </EnumeratedItem>
        <Alias Context="nci:ExtCodeID" Name="C66741" />
      </CodeList>
      <CodeList OID="CL.VSTEST" Name="Vital Signs Test Name" DataType="text" def:StandardOID="STD.CT.SDTM">
        <EnumeratedItem CodedValue="Diastolic Blood Pressure">
          <Alias Context="nci:ExtCodeID" Name="C25299" />
        </EnumeratedItem>
        <EnumeratedItem CodedValue="Pulse Rate">
          <Alias Context="nci:ExtCodeID" Name="C49676" />
        </EnumeratedItem>
        <EnumeratedItem CodedValue="Systolic Blood Pressure">
          <Alias Context="nci:ExtCodeID" Name="C25298" />
        </EnumeratedItem>
        <EnumeratedItem CodedValue="Temperature">
          <Alias Context="nci:ExtCodeID" Name="C174446" />
        </EnumeratedItem>
        <Alias Context="nci:ExtCodeID" Name="C67153" />
      </CodeList>
      <CodeList OID="CL.FATESTCD" Name="Findings About Test Code" DataType="text" def:StandardOID="STD.CT.SDTM">
        <EnumeratedItem CodedValue="DIAMETER">
          <Alias Context="nci:ExtCodeID" Name="C25285" />
        </EnumeratedItem>
        <EnumeratedItem CodedValue="OCCUR">
          <Alias Context="nci:ExtCodeID" Name="C127786" />
        </EnumeratedItem>
        <EnumeratedItem CodedValue="SEV">
          <Alias Context="nci:ExtCodeID" Name="C25676" />
        </EnumeratedItem>
        <Alias Context="nci:ExtCodeID" Name="C101832" />
      </CodeList>
      <CodeList OID="CL.FATEST" Name="Findings About Test Name" DataType="text" def:StandardOID="STD.CT.SDTM">
        <EnumeratedItem CodedValue="Diameter">
          <Alias Context="nci:ExtCodeID" Name="C25285" />
        </EnumeratedItem>
        <EnumeratedItem CodedValue="Occurrence Indicator">
          <Alias Context="nci:ExtCodeID" Name="C127786" />
        </EnumeratedItem>
        <EnumeratedItem CodedValue="Severity/Intensity">
          <Alias Context="nci:ExtCodeID" Name="C25676" />
        </EnumeratedItem>
        <Alias Context="nci:ExtCodeID" Name="C101833" />
      </CodeList>
      <CodeList OID="CL.ISTESTCD" Name="Immunogenicity Specimen Assessments Test Code" DataType="text" def:StandardOID="STD.CT.SDTM">
        <EnumeratedItem CodedValue="MBFAB">
          <Alias Context="nci:ExtCodeID" Name="C181395" />
        </EnumeratedItem>
        <Alias Context="nci:ExtCodeID" Name="C120525" />
      </CodeList>
      <CodeList OID="CL.ISTEST" Name="Immunogenicity Specimen Assessments Test Name" DataType="text" def:StandardOID="STD.CT.SDTM">
        <EnumeratedItem CodedValue="Functional Microbial-induced Antibody">
          <Alias Context="nci:ExtCodeID" Name="C181395" />
        </EnumeratedItem>
        <Alias Context="nci:ExtCodeID" Name="C120526" />
      </CodeList>
      <CodeList OID="CL.SPECTYPE" Name="Specimen Type" DataType="text" def:StandardOID="STD.CT.SDTM">
        <EnumeratedItem CodedValue="SERUM">
          <Alias Context="nci:ExtCodeID" Name="C13325" />
        </EnumeratedItem>
        <Alias Context="nci:ExtCodeID" Name="C78734" />
      </CodeList>
      <CodeList OID="CL.METHOD" Name="Method" DataType="text" def:StandardOID="STD.CT.SDTM">
        <EnumeratedItem CodedValue="HEMAGGLUTINATION INHIBITION ASSAY">
          <Alias Context="nci:ExtCodeID" Name="C120688" />
        </EnumeratedItem>
        <Alias Context="nci:ExtCodeID" Name="C85492" />
      </CodeList>
      <CodeList OID="CL.AESEV" Name="Severity/Intensity Scale for Adverse Events" DataType="text" def:StandardOID="STD.CT.SDTM">
        <EnumeratedItem CodedValue="MILD">
          <Alias Context="nci:ExtCodeID" Name="C41338" />
        </EnumeratedItem>
        <EnumeratedItem CodedValue="MODERATE">
          <Alias Context="nci:ExtCodeID" Name="C41339" />
        </EnumeratedItem>
        <EnumeratedItem CodedValue="SEVERE">
          <Alias Context="nci:ExtCodeID" Name="C41340" />
        </EnumeratedItem>
        <Alias Context="nci:ExtCodeID" Name="C66769" />
      </CodeList>
      <CodeList OID="CL.OUT" Name="Outcome of Event" DataType="text" def:StandardOID="STD.CT.SDTM">
        <EnumeratedItem CodedValue="RECOVERED/RESOLVED">
          <Alias Context="nci:ExtCodeID" Name="C49498" />
        </EnumeratedItem>
        <EnumeratedItem CodedValue="RECOVERING/RESOLVING">
          <Alias Context="nci:ExtCodeID" Name="C49496" />
        </EnumeratedItem>
        <Alias Context="nci:ExtCodeID" Name="C66768" />
      </CodeList>
      <CodeList OID="CL.ACN" Name="Action Taken with Study Treatment" DataType="text" def:StandardOID="STD.CT.SDTM">
        <EnumeratedItem CodedValue="NOT APPLICABLE">
          <Alias Context="nci:ExtCodeID" Name="C48660" />
        </EnumeratedItem>
        <Alias Context="nci:ExtCodeID" Name="C66767" />
      </CodeList>
      <CodeList OID="CL.ND" Name="Not Done" DataType="text" def:StandardOID="STD.CT.SDTM">
        <EnumeratedItem CodedValue="NOT DONE">
          <Alias Context="nci:ExtCodeID" Name="C49484" />
        </EnumeratedItem>
        <Alias Context="nci:ExtCodeID" Name="C66789" />
      </CodeList>
      <CodeList OID="CL.TSPARMCD" Name="Trial Summary Parameter Test Code" DataType="text" def:StandardOID="STD.CT.SDTM">
        <EnumeratedItem CodedValue="AGEMAX">
          <Alias Context="nci:ExtCodeID" Name="C49694" />
        </EnumeratedItem>
        <EnumeratedItem CodedValue="AGEMIN">
          <Alias Context="nci:ExtCodeID" Name="C49693" />
        </EnumeratedItem>
        <EnumeratedItem CodedValue="DOSE">
          <Alias Context="nci:ExtCodeID" Name="C25488" />
        </EnumeratedItem>
        <EnumeratedItem CodedValue="DOSFRM">
          <Alias Context="nci:ExtCodeID" Name="C42636" />
        </EnumeratedItem>
        <EnumeratedItem CodedValue="DOSFRQ">
          <Alias Context="nci:ExtCodeID" Name="C89081" />
        </EnumeratedItem>
        <EnumeratedItem CodedValue="DOSU">
          <Alias Context="nci:ExtCodeID" Name="C73558" />
        </EnumeratedItem>
        <EnumeratedItem CodedValue="INDIC">
          <Alias Context="nci:ExtCodeID" Name="C112038" />
        </EnumeratedItem>
        <EnumeratedItem CodedValue="INTMODEL">
          <Alias Context="nci:ExtCodeID" Name="C98746" />
        </EnumeratedItem>
        <EnumeratedItem CodedValue="LENGTH">
          <Alias Context="nci:ExtCodeID" Name="C49697" />
        </EnumeratedItem>
        <EnumeratedItem CodedValue="NARMS">
          <Alias Context="nci:ExtCodeID" Name="C98771" />
        </EnumeratedItem>
        <EnumeratedItem CodedValue="PLANSUB">
          <Alias Context="nci:ExtCodeID" Name="C49692" />
        </EnumeratedItem>
        <EnumeratedItem CodedValue="RANDOM">
          <Alias Context="nci:ExtCodeID" Name="C25196" />
        </EnumeratedItem>
        <EnumeratedItem CodedValue="ROUTE">
          <Alias Context="nci:ExtCodeID" Name="C38114" />
        </EnumeratedItem>
        <EnumeratedItem CodedValue="SDTIGVER">
          <Alias Context="nci:ExtCodeID" Name="C156604" />
        </EnumeratedItem>
        <EnumeratedItem CodedValue="SDTMVER">
          <Alias Context="nci:ExtCodeID" Name="C156605" />
        </EnumeratedItem>
        <EnumeratedItem CodedValue="SEXPOP">
          <Alias Context="nci:ExtCodeID" Name="C49696" />
        </EnumeratedItem>
        <EnumeratedItem CodedValue="SPONSOR">
          <Alias Context="nci:ExtCodeID" Name="C70793" />
        </EnumeratedItem>
        <EnumeratedItem CodedValue="SSTDTC">
          <Alias Context="nci:ExtCodeID" Name="C69208" />
        </EnumeratedItem>
        <EnumeratedItem CodedValue="SENDTC">
          <Alias Context="nci:ExtCodeID" Name="C90462" />
        </EnumeratedItem>
        <EnumeratedItem CodedValue="STRATFCT">
          <Alias Context="nci:ExtCodeID" Name="C16153" />
        </EnumeratedItem>
        <EnumeratedItem CodedValue="STYPE">
          <Alias Context="nci:ExtCodeID" Name="C142175" />
        </EnumeratedItem>
        <EnumeratedItem CodedValue="TBLIND">
          <Alias Context="nci:ExtCodeID" Name="C49658" />
        </EnumeratedItem>
        <EnumeratedItem CodedValue="TCNTRL">
          <Alias Context="nci:ExtCodeID" Name="C49647" />
        </EnumeratedItem>
        <EnumeratedItem CodedValue="TINDTP">
          <Alias Context="nci:ExtCodeID" Name="C49652" />
        </EnumeratedItem>
        <EnumeratedItem CodedValue="TITLE">
          <Alias Context="nci:ExtCodeID" Name="C49802" />
        </EnumeratedItem>
        <EnumeratedItem CodedValue="TPHASE">
          <Alias Context="nci:ExtCodeID" Name="C48281" />
        </EnumeratedItem>
        <EnumeratedItem CodedValue="TRT">
          <Alias Context="nci:ExtCodeID" Name="C41161" />
        </EnumeratedItem>
        <EnumeratedItem CodedValue="TTYPE">
          <Alias Context="nci:ExtCodeID" Name="C49660" />
        </EnumeratedItem>
        <EnumeratedItem CodedValue="ACTSUB">
          <Alias Context="nci:ExtCodeID" Name="C98703" />
        </EnumeratedItem>
        <Alias Context="nci:ExtCodeID" Name="C66738" />
      </CodeList>
      <CodeList OID="CL.TPHASE" Name="Trial Phase Response" DataType="text" def:StandardOID="STD.CT.SDTM">
        <EnumeratedItem CodedValue="PHASE II/III TRIAL">
          <Alias Context="nci:ExtCodeID" Name="C15694" />
        </EnumeratedItem>
        <Alias Context="nci:ExtCodeID" Name="C66737" />
      </CodeList>
      <CodeList OID="CL.TTYPE" Name="Trial Type Response" DataType="text" def:StandardOID="STD.CT.SDTM">
        <EnumeratedItem CodedValue="IMMUNOGENICITY">
          <Alias Context="nci:ExtCodeID" Name="C120842" />
        </EnumeratedItem>
        <EnumeratedItem CodedValue="SAFETY">
          <Alias Context="nci:ExtCodeID" Name="C49667" />
        </EnumeratedItem>
        <Alias Context="nci:ExtCodeID" Name="C66739" />
      </CodeList>
      <CodeList OID="CL.TBLIND" Name="Trial Blinding Schema Response" DataType="text" def:StandardOID="STD.CT.SDTM">
        <EnumeratedItem CodedValue="DOUBLE BLIND">
          <Alias Context="nci:ExtCodeID" Name="C15228" />
        </EnumeratedItem>
        <Alias Context="nci:ExtCodeID" Name="C66735" />
      </CodeList>
      <CodeList OID="CL.TCNTRL" Name="Control Type Response" DataType="text" def:StandardOID="STD.CT.SDTM">
        <EnumeratedItem CodedValue="PLACEBO">
          <Alias Context="nci:ExtCodeID" Name="C49648" />
        </EnumeratedItem>
        <Alias Context="nci:ExtCodeID" Name="C66785" />
      </CodeList>
      <CodeList OID="CL.INTMODEL" Name="Intervention Model Response" DataType="text" def:StandardOID="STD.CT.SDTM">
        <EnumeratedItem CodedValue="PARALLEL">
          <Alias Context="nci:ExtCodeID" Name="C82639" />
        </EnumeratedItem>
        <Alias Context="nci:ExtCodeID" Name="C99076" />
      </CodeList>
      <CodeList OID="CL.STYPE" Name="Study Type Response" DataType="text" def:StandardOID="STD.CT.SDTM">
        <EnumeratedItem CodedValue="INTERVENTIONAL">
          <Alias Context="nci:ExtCodeID" Name="C98388" />
        </EnumeratedItem>
        <Alias Context="nci:ExtCodeID" Name="C99077" />
      </CodeList>
      <CodeList OID="CL.SEXPOP" Name="Sex of Participants Response" DataType="text" def:StandardOID="STD.CT.SDTM">
        <EnumeratedItem CodedValue="BOTH">
          <Alias Context="nci:ExtCodeID" Name="C49636" />
        </EnumeratedItem>
        <Alias Context="nci:ExtCodeID" Name="C66732" />
      </CodeList>
      <CodeList OID="CL.TINDTP" Name="Trial Intent Type Response" DataType="text" def:StandardOID="STD.CT.SDTM">
        <EnumeratedItem CodedValue="PREVENTION">
          <Alias Context="nci:ExtCodeID" Name="C49657" />
        </EnumeratedItem>
        <Alias Context="nci:ExtCodeID" Name="C66736" />
      </CodeList>
      <CodeList OID="CL.RACE" Name="Race" DataType="text" def:StandardOID="STD.CT.SDTM.2025">
        <EnumeratedItem CodedValue="ASIAN">
          <Alias Context="nci:ExtCodeID" Name="C41260" />
        </EnumeratedItem>
        <EnumeratedItem CodedValue="BLACK OR AFRICAN AMERICAN">
          <Alias Context="nci:ExtCodeID" Name="C16352" />
        </EnumeratedItem>
        <EnumeratedItem CodedValue="OTHER">
          <Alias Context="nci:ExtCodeID" Name="C17649" />
        </EnumeratedItem>
        <EnumeratedItem CodedValue="WHITE">
          <Alias Context="nci:ExtCodeID" Name="C41261" />
        </EnumeratedItem>
        <Alias Context="nci:ExtCodeID" Name="C74457" />
      </CodeList>
      <CodeList OID="CL.ETHNIC" Name="Ethnic Group" DataType="text" def:StandardOID="STD.CT.SDTM.2025">
        <EnumeratedItem CodedValue="HISPANIC OR LATINO">
          <Alias Context="nci:ExtCodeID" Name="C17459" />
        </EnumeratedItem>
        <EnumeratedItem CodedValue="NOT HISPANIC OR LATINO">
          <Alias Context="nci:ExtCodeID" Name="C41222" />
        </EnumeratedItem>
        <Alias Context="nci:ExtCodeID" Name="C66790" />
      </CodeList>
      <MethodDef OID="MT.USUBJID" Name="MT.USUBJID" Type="Computation">
        <Description>
          <TranslatedText xml:lang="en">'VAXF101-' || SUBJECT.</TranslatedText>
        </Description>
      </MethodDef>
      <MethodDef OID="MT.ISODT" Name="MT.ISODT" Type="Computation">
        <Description>
          <TranslatedText xml:lang="en">Raw dates DD-MON-YYYY or ISO yyyy-mm-dd -&gt; ISO 8601. Partial 'UN-MON-YYYY' (day unknown) -&gt; yyyy-mm. Date and time are joined when a time is collected (EX).</TranslatedText>
        </Description>
      </MethodDef>
      <MethodDef OID="MT.UPPER" Name="MT.UPPER" Type="Computation">
        <Description>
          <TranslatedText xml:lang="en">Upper case of the raw text, mapped to the codelist term.</TranslatedText>
        </Description>
      </MethodDef>
      <MethodDef OID="MT.TRIM" Name="MT.TRIM" Type="Computation">
        <Description>
          <TranslatedText xml:lang="en">Verbatim text, leading/trailing blanks removed. Case kept.</TranslatedText>
        </Description>
      </MethodDef>
      <MethodDef OID="MT.SEQ" Name="MT.SEQ" Type="Computation">
        <Description>
          <TranslatedText xml:lang="en">Sequence number within USUBJID, ordered by the domain key variables.</TranslatedText>
        </Description>
      </MethodDef>
      <MethodDef OID="MT.DY" Name="MT.DY" Type="Computation">
        <Description>
          <TranslatedText xml:lang="en">--DY = (--DTC - RFSTDTC) + 1 if --DTC &gt;= RFSTDTC, else (--DTC - RFSTDTC), using dates only. Null when either date is missing or partial. Null for subjects never dosed.</TranslatedText>
        </Description>
      </MethodDef>
      <MethodDef OID="MT.RFDOSE" Name="MT.RFDOSE" Type="Computation">
        <Description>
          <TranslatedText xml:lang="en">Date/time of the first record in EX (DOSED = Y). Null for subjects not dosed.</TranslatedText>
        </Description>
      </MethodDef>
      <MethodDef OID="MT.RFEND" Name="MT.RFEND" Type="Computation">
        <Description>
          <TranslatedText xml:lang="en">DSSTDTC of the DISPOSITION EVENT record.</TranslatedText>
        </Description>
      </MethodDef>
      <MethodDef OID="MT.AGE" Name="MT.AGE" Type="Computation">
        <Description>
          <TranslatedText xml:lang="en">Completed years between BRTHDTC and RFICDTC.</TranslatedText>
        </Description>
      </MethodDef>
      <MethodDef OID="MT.ARM" Name="MT.ARM" Type="Computation">
        <Description>
          <TranslatedText xml:lang="en">RAND.TRTCODE A -&gt; ARMCD VAXF, ARM 'VAXF-101 0.5 mL'; B -&gt; PBO, 'Placebo'. ACTARMCD/ACTARM equal ARMCD/ARM for dosed subjects. Screen failures: all four null, ARMNRS = SCREEN FAILURE. Randomized, never dosed: ACTARMCD/ACTARM null, ARMNRS = ASSIGNED, NOT TREATED.</TranslatedText>
        </Description>
      </MethodDef>
      <MethodDef OID="MT.EPOCH" Name="MT.EPOCH" Type="Computation">
        <Description>
          <TranslatedText xml:lang="en">By --DTC date vs. the dose date: before -&gt; SCREENING; on the dose date -&gt; TREATMENT; after -&gt; FOLLOW-UP. Partial date -&gt; null. Subjects never dosed and screen failures -&gt; SCREENING. Protocol milestones -&gt; SCREENING. Pre-dose records (screening and Day 1 sample of a dosed subject: VS, IS) -&gt; SCREENING, also on the dose date. DS disposition events -&gt; by their date.</TranslatedText>
        </Description>
      </MethodDef>
      <MethodDef OID="MT.DSDECOD" Name="MT.DSDECOD" Type="Computation">
        <Description>
          <TranslatedText xml:lang="en">Informed consent record -&gt; 'INFORMED CONSENT OBTAINED', randomization -&gt; 'RANDOMIZED' (DSCAT PROTOCOL MILESTONE). Disposition: raw DSTERM mapped to NCOMPLT (Completed, Lost to Follow-up, Screen Failure, Withdrawal by Subject).</TranslatedText>
        </Description>
      </MethodDef>
      <MethodDef OID="MT.EXTRT" Name="MT.EXTRT" Type="Computation">
        <Description>
          <TranslatedText xml:lang="en">RAND.TRTCODE A -&gt; 'VAXF-101', B -&gt; 'PLACEBO'.</TranslatedText>
        </Description>
      </MethodDef>
      <MethodDef OID="MT.EXLOC" Name="MT.EXLOC" Type="Computation">
        <Description>
          <TranslatedText xml:lang="en">'Deltoid' -&gt; DELTOID MUSCLE.</TranslatedText>
        </Description>
      </MethodDef>
      <MethodDef OID="MT.VISIT" Name="MT.VISIT" Type="Other">
        <Description>
          <TranslatedText xml:lang="en">Raw VISIT name -&gt; VISITNUM: Screening 1, Day 1 2, Day 8 3, Day 22 4, Day 91 5. VISITDY from TV (Screening null).</TranslatedText>
        </Description>
      </MethodDef>
      <MethodDef OID="MT.IECRIT" Name="MT.IECRIT" Type="Other">
        <Description>
          <TranslatedText xml:lang="en">IE.IETERM -&gt; criterion: 'Acute illness within 2 weeks of enrollment' EXCL01 (IEORRES Y); 'Received another vaccine within 30 days' EXCL02 (Y); 'Positive pregnancy test' EXCL03 (Y); 'Unable to attend all scheduled visits' INCL03 (N); 'Medical condition not stable' INCL02 (N). Text from TI. One record per screen failure.</TranslatedText>
        </Description>
      </MethodDef>
      <MethodDef OID="MT.VSTEST" Name="MT.VSTEST" Type="Other">
        <Description>
          <TranslatedText xml:lang="en">SYSBP / DIABP / PULSE / TEMP -&gt; test name from the codelist. One record per column per raw row.</TranslatedText>
        </Description>
      </MethodDef>
      <MethodDef OID="MT.VSCAT" Name="MT.VSCAT" Type="Computation">
        <Description>
          <TranslatedText xml:lang="en">Diary temperature: VSCAT = REACTOGENICITY, VSSCAT = SYSTEMIC. Visit vitals: null.</TranslatedText>
        </Description>
      </MethodDef>
      <MethodDef OID="MT.VSUNIT" Name="MT.VSUNIT" Type="Computation">
        <Description>
          <TranslatedText xml:lang="en">Unit as collected for TEMP (C or F). SYSBP mmHg, DIABP mmHg, PULSE beats/min.</TranslatedText>
        </Description>
      </MethodDef>
      <MethodDef OID="MT.TEMPC" Name="MT.TEMPC" Type="Computation">
        <Description>
          <TranslatedText xml:lang="en">TEMP: VSSTRESN = ORRES in C; if ORRESU = F, (ORRES - 32) * 5 / 9, 1 decimal. VSSTRESU = C. Other tests: VSSTRESN = VSORRES, VSSTRESU = VSORRESU.</TranslatedText>
        </Description>
      </MethodDef>
      <MethodDef OID="MT.LOBXFL" Name="MT.LOBXFL" Type="Computation">
        <Description>
          <TranslatedText xml:lang="en">'Y' on the last non-missing record per USUBJID and test before the dose: Day 1 vitals; Day 1 HAI sample. Null for subjects never dosed.</TranslatedText>
        </Description>
      </MethodDef>
      <MethodDef OID="MT.DIARYTPT" Name="MT.DIARYTPT" Type="Computation">
        <Description>
          <TranslatedText xml:lang="en">Diary row: VSTPT/FATPT = 'DAY ' || DIARYDAY, number = DIARYDAY. 30-minute observation: FATPT '30 MINUTES POST-DOSE', FATPTNUM 0.</TranslatedText>
        </Description>
      </MethodDef>
      <MethodDef OID="MT.REACT" Name="MT.REACT" Type="Other">
        <Description>
          <TranslatedText xml:lang="en">Raw column -&gt; reaction, category: PAIN, TENDERNESS, REDNESS_MM, SWELLING_MM, INDURATION_MM (LOCAL); FEVER, CHILLS, MALAISE, MYALGIA, HEADACHE, ARTHRALGIA, NAUSEA, VOMITING (SYSTEMIC). CEGRPID/FAGRPID = 'VACCINATION 1-' || reaction.</TranslatedText>
        </Description>
      </MethodDef>
      <MethodDef OID="MT.FATEST" Name="MT.FATEST" Type="Computation">
        <Description>
          <TranslatedText xml:lang="en">Severity-scale reactions (pain, tenderness, chills, malaise, myalgia, headache, arthralgia, nausea, vomiting): OCCUR for every diary day, SEV only on days with a reaction. Diameter reactions (redness, swelling, induration): DIAMETER for every diary day, 0 mm when none. Fever is in VS, not FACE.</TranslatedText>
        </Description>
      </MethodDef>
      <MethodDef OID="MT.FAORRES" Name="MT.FAORRES" Type="Computation">
        <Description>
          <TranslatedText xml:lang="en">OCCUR: Y when the raw severity is not 'None', else N. SEV: raw severity upper case. DIAMETER: raw mm. FAORRESU = mm for DIAMETER, null otherwise. FASTRESN = FAORRES for DIAMETER only.</TranslatedText>
        </Description>
      </MethodDef>
      <MethodDef OID="MT.CEOCCUR" Name="MT.CEOCCUR" Type="Computation">
        <Description>
          <TranslatedText xml:lang="en">Per subject and reaction over the window (30 minutes; diary days 1-7). Grade: severity scale None/Mild/Moderate/Severe -&gt; 0-3; diameter mm: &lt;25 0, 25-50 1, 51-100 2, &gt;100 3; fever (C): &lt;38.0 0, 38.0-38.4 1, 38.5-38.9 2, 39.0-40.0 3, &gt;40.0 4. CEOCCUR = Y if the maximum grade &gt;= 1 else N. CESEV (MILD, MODERATE, SEVERE) for severity-scale reactions, CETOXGR (1-4) for diameter and temperature reactions. CESTDTC/CEENDTC = first and last day with grade &gt;= 1 (null when CEOCCUR = N). Window rows exist only for subjects who were dosed; days with no diary entry are not imputed.</TranslatedText>
        </Description>
      </MethodDef>
      <MethodDef OID="MT.AECODE" Name="MT.AECODE" Type="Other">
        <Description>
          <TranslatedText xml:lang="en">Verbatim (case-insensitive) -&gt; preferred term and system organ class from a local coding table (13 preferred terms, 21 verbatim variants). See COM.CODING.</TranslatedText>
        </Description>
      </MethodDef>
      <MethodDef OID="MT.AECAT" Name="MT.AECAT" Type="Computation">
        <Description>
          <TranslatedText xml:lang="en">'UNSOLICITED' for every record. SAEs are flagged by AESER.</TranslatedText>
        </Description>
      </MethodDef>
      <MethodDef OID="MT.AEMAP" Name="MT.AEMAP" Type="Other">
        <Description>
          <TranslatedText xml:lang="en">AEACN: 'None' -&gt; NOT APPLICABLE (single dose already given). AEREL: upper case. AEOUT: 'Recovered/Resolved' -&gt; RECOVERED/RESOLVED, 'Recovering' -&gt; RECOVERING/RESOLVING.</TranslatedText>
        </Description>
      </MethodDef>
      <MethodDef OID="MT.AEONGO" Name="MT.AEONGO" Type="Computation">
        <Description>
          <TranslatedText xml:lang="en">AEONGO = 'Y': AEENDTC null, AEENRTPT = 'ONGOING', AEENTPT = RFPENDTC.</TranslatedText>
        </Description>
      </MethodDef>
      <MethodDef OID="MT.STRAIN" Name="MT.STRAIN" Type="Computation">
        <Description>
          <TranslatedText xml:lang="en">'HAI Strain A' -&gt; 'STRAIN A', same for B and C.</TranslatedText>
        </Description>
      </MethodDef>
      <MethodDef OID="MT.ISRES" Name="MT.ISRES" Type="Computation">
        <Description>
          <TranslatedText xml:lang="en">ISORRES = RESULT. Numeric titer: ISSTRESC = ISORRES, ISSTRESN numeric. '&lt;10': ISSTRESC '&lt;10', ISSTRESN null (LLOQ 10). Blank result: ISORRES null, ISSTAT NOT DONE, ISREASND 'INSUFFICIENT SAMPLE'. Unit 'titer'.</TranslatedText>
        </Description>
      </MethodDef>
      <MethodDef OID="MT.SEQDS" Name="MT.SEQDS" Type="Computation">
        <Description>
          <TranslatedText xml:lang="en">Sequence number within USUBJID, ordered by DSSTDTC; on the same date: informed consent, randomization, disposition event.</TranslatedText>
        </Description>
      </MethodDef>
      <def:CommentDef OID="COM.RACE">
        <Description>
          <TranslatedText xml:lang="en">RACE and ETHNIC use codelists C74457/C66790 from CT 2025-09-26; CT 2026-09-25 has only the as-collected codelists. Same decision as P1 and P2.</TranslatedText>
        </Description>
      </def:CommentDef>
      <def:CommentDef OID="COM.ARMNRS">
        <Description>
          <TranslatedText xml:lang="en">SDTMIG 3.4: ARMCD/ARM/ACTARMCD/ACTARM are null when a subject is not assigned or not treated; the reason is in ARMNRS.</TranslatedText>
        </Description>
      </def:CommentDef>
      <def:CommentDef OID="COM.DS">
        <Description>
          <TranslatedText xml:lang="en">DSDECOD for disposition events uses codelist NCOMPLT (C66727) under the umbrella id DSDECOD; protocol milestones use PROTMLST.</TranslatedText>
        </Description>
      </def:CommentDef>
      <def:CommentDef OID="COM.BLIND">
        <Description>
          <TranslatedText xml:lang="en">The study is double-blind. EX holds the actual treatment from the randomization list; the SDTM datasets are unblinded.</TranslatedText>
        </Description>
      </def:CommentDef>
      <def:CommentDef OID="COM.TEMP">
        <Description>
          <TranslatedText xml:lang="en">Temperature is entered in C or F per subject. VSORRES keeps the entered value and unit; VSSTRESN is always in C.</TranslatedText>
        </Description>
      </def:CommentDef>
      <def:CommentDef OID="COM.FLAT">
        <Description>
          <TranslatedText xml:lang="en">Reactogenicity follows the flat model (CDISC Vaccine TAUG): a global record per reaction in CE, daily diary values in FA (FACE), diary temperature in VS.</TranslatedText>
        </Description>
      </def:CommentDef>
      <def:CommentDef OID="COM.GRADE">
        <Description>
          <TranslatedText xml:lang="en">Grading follows the FDA 2007 toxicity grading scale for preventive vaccine trials. Diameters under 25 mm stay in FACE but do not count as a reaction.</TranslatedText>
        </Description>
      </def:CommentDef>
      <def:CommentDef OID="COM.CODING">
        <Description>
          <TranslatedText xml:lang="en">MedDRA is licensed and not used. AEDECOD and AEBODSYS are assigned from a small local table whose values are written like MedDRA PT and SOC names; no dictionary version applies.</TranslatedText>
        </Description>
      </def:CommentDef>
      <def:CommentDef OID="COM.ISTEST">
        <Description>
          <TranslatedText xml:lang="en">CT has no hemagglutination-inhibition test code. ISTESTCD MBFAB (functional microbial-induced antibody) is the nearest term; the assay is given by ISMETHOD and the strain by ISBDAGNT.</TranslatedText>
        </Description>
      </def:CommentDef>
      <def:CommentDef OID="COM.TD">
        <Description>
          <TranslatedText xml:lang="en">Trial design datasets describe the synthetic study VAXF101. Not related to any real trial.</TranslatedText>
        </Description>
      </def:CommentDef>
      <def:leaf ID="LF.DM" xlink:href="dm.xpt">
        <def:title>dm.xpt</def:title>
      </def:leaf>
      <def:leaf ID="LF.DS" xlink:href="ds.xpt">
        <def:title>ds.xpt</def:title>
      </def:leaf>
      <def:leaf ID="LF.EX" xlink:href="ex.xpt">
        <def:title>ex.xpt</def:title>
      </def:leaf>
      <def:leaf ID="LF.SV" xlink:href="sv.xpt">
        <def:title>sv.xpt</def:title>
      </def:leaf>
      <def:leaf ID="LF.IE" xlink:href="ie.xpt">
        <def:title>ie.xpt</def:title>
      </def:leaf>
      <def:leaf ID="LF.VS" xlink:href="vs.xpt">
        <def:title>vs.xpt</def:title>
      </def:leaf>
      <def:leaf ID="LF.CE" xlink:href="ce.xpt">
        <def:title>ce.xpt</def:title>
      </def:leaf>
      <def:leaf ID="LF.FA" xlink:href="face.xpt">
        <def:title>face.xpt</def:title>
      </def:leaf>
      <def:leaf ID="LF.AE" xlink:href="ae.xpt">
        <def:title>ae.xpt</def:title>
      </def:leaf>
      <def:leaf ID="LF.IS" xlink:href="is.xpt">
        <def:title>is.xpt</def:title>
      </def:leaf>
      <def:leaf ID="LF.TA" xlink:href="ta.xpt">
        <def:title>ta.xpt</def:title>
      </def:leaf>
      <def:leaf ID="LF.TE" xlink:href="te.xpt">
        <def:title>te.xpt</def:title>
      </def:leaf>
      <def:leaf ID="LF.TV" xlink:href="tv.xpt">
        <def:title>tv.xpt</def:title>
      </def:leaf>
      <def:leaf ID="LF.TI" xlink:href="ti.xpt">
        <def:title>ti.xpt</def:title>
      </def:leaf>
      <def:leaf ID="LF.TS" xlink:href="ts.xpt">
        <def:title>ts.xpt</def:title>
      </def:leaf>
    </MetaDataVersion>
  </Study>
</ODM>
